timestamp_us,relative_time_ms,accel_x_mg,accel_y_mg,accel_z_mg,gyro_x_dps,gyro_y_dps,gyro_z_dps,accel_magnitude,gyro_magnitude
442232.468,0.0,155.0,-986.0,-176.0,420.0,-770.0,-630.0,1013.5072767375674,1079.907403437906
442232.468,0.0,158.0,-986.0,-175.0,420.0,-700.0,-630.0,1013.7973170215041,1031.1643903859365
442232.468,0.0,157.0,-986.0,-175.0,490.0,-840.0,-560.0,1013.6419486189391,1122.1853679316978
442232.468,0.0,158.0,-987.0,-175.0,420.0,-840.0,-490.0,1014.7699246627286,1059.292216529509
442232.468,0.0,155.0,-986.0,-175.0,420.0,-770.0,-490.0,1013.3341008769023,1004.6890066085126
442232.468,0.0,154.0,-986.0,-175.0,420.0,-840.0,-560.0,1013.1816224152509,1093.4349546269316
442232.468,0.0,154.0,-987.0,-176.0,420.0,-840.0,-560.0,1014.3278562673905,1093.4349546269316
442232.468,0.0,156.0,-987.0,-175.0,420.0,-700.0,-630.0,1014.4604477257849,1031.1643903859365
442232.468,0.0,156.0,-986.0,-175.0,420.0,-700.0,-700.0,1013.4875430906884,1075.3604047016051
442232.468,0.0,157.0,-986.0,-176.0,420.0,-700.0,-630.0,1013.8150718942779,1031.1643903859365
442232.468,0.0,158.0,-986.0,-175.0,420.0,-770.0,-560.0,1013.7973170215041,1040.6248123122955
442232.468,0.0,156.0,-987.0,-176.0,490.0,-840.0,-490.0,1014.6334313435567,1088.9444430272831
442232.468,0.0,155.0,-986.0,-175.0,420.0,-770.0,-560.0,1013.3341008769023,1040.6248123122955
442232.468,0.0,154.0,-986.0,-175.0,420.0,-770.0,-630.0,1013.1816224152509,1079.907403437906
442232.468,0.0,156.0,-985.0,-176.0,350.0,-770.0,-630.0,1012.6880072361872,1054.6563421323553
442232.468,0.0,156.0,-986.0,-176.0,420.0,-700.0,-630.0,1013.660692736973,1031.1643903859365
442232.468,0.0,157.0,-986.0,-175.0,350.0,-700.0,-560.0,1013.6419486189391,962.3408959407265
442232.468,0.0,156.0,-987.0,-176.0,350.0,-770.0,-560.0,1014.6334313435567,1014.3963722332606
442232.468,0.0,155.0,-987.0,-177.0,420.0,-770.0,-560.0,1014.654128262434,1040.6248123122955
442232.468,0.0,155.0,-987.0,-175.0,420.0,-840.0,-490.0,1014.3071526909391,1059.292216529509
442232.468,0.0,154.0,-987.0,-175.0,350.0,-770.0,-630.0,1014.1548205279113,1054.6563421323553
442232.468,0.0,155.0,-987.0,-176.0,420.0,-770.0,-630.0,1014.4801624477435,1079.907403437906
442232.468,0.0,156.0,-986.0,-176.0,420.0,-700.0,-630.0,1013.660692736973,1031.1643903859365
442232.468,0.0,156.0,-986.0,-177.0,420.0,-770.0,-630.0,1013.834799166018,1079.907403437906
442232.468,0.0,156.0,-986.0,-176.0,490.0,-840.0,-560.0,1013.660692736973,1122.1853679316978
442232.468,0.0,156.0,-986.0,-176.0,420.0,-840.0,-560.0,1013.660692736973,1093.4349546269316
442232.468,0.0,155.0,-986.0,-175.0,420.0,-840.0,-560.0,1013.3341008769023,1093.4349546269316
442232.468,0.0,154.0,-987.0,-175.0,420.0,-770.0,-630.0,1014.1548205279113,1079.907403437906
442232.468,0.0,155.0,-987.0,-176.0,420.0,-840.0,-560.0,1014.4801624477435,1093.4349546269316
442232.468,0.0,156.0,-986.0,-176.0,420.0,-770.0,-630.0,1013.660692736973,1079.907403437906
442232.468,0.0,158.0,-986.0,-176.0,420.0,-700.0,-630.0,1013.9704137695537,1031.1643903859365
442232.468,0.0,157.0,-985.0,-176.0,560.0,-840.0,-560.0,1012.8425346518579,1154.469575172945
442232.468,0.0,155.0,-987.0,-176.0,420.0,-840.0,-560.0,1014.4801624477435,1093.4349546269316
442232.468,0.0,155.0,-987.0,-175.0,420.0,-770.0,-630.0,1014.3071526909391,1079.907403437906
442232.468,0.0,154.0,-987.0,-175.0,420.0,-770.0,-630.0,1014.1548205279113,1079.907403437906
442232.468,0.0,155.0,-987.0,-175.0,420.0,-700.0,-630.0,1014.3071526909391,1031.1643903859365
442232.468,0.0,157.0,-987.0,-175.0,420.0,-770.0,-630.0,1014.6147051960168,1079.907403437906
442232.468,0.0,158.0,-986.0,-177.0,350.0,-840.0,-560.0,1014.1444670262714,1068.5036265731624
442232.468,0.0,158.0,-986.0,-176.0,420.0,-770.0,-560.0,1013.9704137695537,1040.6248123122955
442232.468,0.0,155.0,-986.0,-175.0,420.0,-840.0,-560.0,1013.3341008769023,1093.4349546269316
442232.468,0.0,154.0,-986.0,-175.0,350.0,-840.0,-560.0,1013.1816224152509,1068.5036265731624
442232.468,0.0,153.0,-987.0,-175.0,350.0,-770.0,-560.0,1014.0034516706538,1014.3963722332606
442232.468,0.0,155.0,-987.0,-175.0,420.0,-700.0,-630.0,1014.3071526909391,1031.1643903859365
442232.468,0.0,157.0,-987.0,-175.0,420.0,-770.0,-630.0,1014.6147051960168,1079.907403437906
442232.468,0.0,158.0,-985.0,-175.0,420.0,-700.0,-560.0,1012.8247627304538,989.9494936611666
442232.468,0.0,158.0,-986.0,-175.0,420.0,-840.0,-560.0,1013.7973170215041,1093.4349546269316
442232.468,0.0,156.0,-986.0,-175.0,420.0,-840.0,-490.0,1013.4875430906884,1059.292216529509
442232.468,0.0,154.0,-986.0,-175.0,420.0,-770.0,-490.0,1013.1816224152509,1004.6890066085126
442232.468,0.0,153.0,-987.0,-175.0,420.0,-770.0,-560.0,1014.0034516706538,1040.6248123122955
442232.468,0.0,155.0,-987.0,-175.0,420.0,-700.0,-630.0,1014.3071526909391,1031.1643903859365
442232.468,0.0,156.0,-986.0,-175.0,350.0,-700.0,-630.0,1013.4875430906884,1004.6890066085126
442232.468,0.0,158.0,-986.0,-175.0,420.0,-770.0,-630.0,1013.7973170215041,1079.907403437906
442232.468,0.0,158.0,-986.0,-175.0,350.0,-770.0,-630.0,1013.7973170215041,1054.6563421323553
442232.468,0.0,157.0,-985.0,-175.0,350.0,-840.0,-560.0,1012.6692451141192,1068.5036265731624
442232.468,0.0,155.0,-986.0,-176.0,490.0,-840.0,-560.0,1013.5072767375674,1122.1853679316978
442232.468,0.0,154.0,-986.0,-175.0,420.0,-700.0,-560.0,1013.1816224152509,989.9494936611666
442232.468,0.0,154.0,-986.0,-175.0,490.0,-700.0,-560.0,1013.1816224152509,1021.6163663528497
442232.468,0.0,155.0,-986.0,-175.0,420.0,-700.0,-700.0,1013.3341008769023,1075.3604047016051
442232.468,0.0,157.0,-986.0,-175.0,350.0,-700.0,-630.0,1013.6419486189391,1004.6890066085126
442232.625,0.00015700000000651925,158.0,-986.0,-176.0,420.0,-770.0,-560.0,1013.9704137695537,1040.6248123122955
442232.625,0.00015700000000651925,156.0,-986.0,-176.0,420.0,-840.0,-560.0,1013.660692736973,1093.4349546269316
442232.625,0.00015700000000651925,156.0,-986.0,-175.0,420.0,-770.0,-560.0,1013.4875430906884,1040.6248123122955
442232.625,0.00015700000000651925,155.0,-987.0,-175.0,350.0,-770.0,-560.0,1014.3071526909391,1014.3963722332606
442232.625,0.00015700000000651925,154.0,-986.0,-175.0,420.0,-770.0,-560.0,1013.1816224152509,1040.6248123122955
442232.625,0.00015700000000651925,155.0,-986.0,-175.0,420.0,-840.0,-630.0,1013.3341008769023,1130.884609498246
442232.625,0.00015700000000651925,156.0,-986.0,-176.0,350.0,-770.0,-700.0,1013.660692736973,1097.9070998950685
442232.625,0.00015700000000651925,156.0,-987.0,-175.0,350.0,-770.0,-630.0,1014.4604477257849,1054.6563421323553
442232.625,0.00015700000000651925,157.0,-986.0,-175.0,350.0,-770.0,-560.0,1013.6419486189391,1014.3963722332606
442232.625,0.00015700000000651925,156.0,-986.0,-175.0,420.0,-840.0,-560.0,1013.4875430906884,1093.4349546269316
442232.625,0.00015700000000651925,155.0,-986.0,-176.0,420.0,-840.0,-560.0,1013.5072767375674,1093.4349546269316
442232.625,0.00015700000000651925,156.0,-986.0,-176.0,420.0,-770.0,-560.0,1013.660692736973,1040.6248123122955
442232.625,0.00015700000000651925,156.0,-986.0,-175.0,490.0,-770.0,-560.0,1013.4875430906884,1070.7940978544848
442232.625,0.00015700000000651925,155.0,-986.0,-176.0,420.0,-770.0,-630.0,1013.5072767375674,1079.907403437906
442232.625,0.00015700000000651925,155.0,-985.0,-176.0,350.0,-770.0,-630.0,1012.5344438585781,1054.6563421323553
442232.625,0.00015700000000651925,156.0,-986.0,-176.0,420.0,-700.0,-630.0,1013.660692736973,1031.1643903859365
442232.625,0.00015700000000651925,156.0,-987.0,-175.0,350.0,-770.0,-560.0,1014.4604477257849,1014.3963722332606
442232.625,0.00015700000000651925,155.0,-986.0,-175.0,350.0,-770.0,-560.0,1013.3341008769023,1014.3963722332606
442232.625,0.00015700000000651925,157.0,-986.0,-175.0,420.0,-770.0,-560.0,1013.6419486189391,1040.6248123122955
442232.625,0.00015700000000651925,157.0,-986.0,-177.0,420.0,-770.0,-560.0,1013.9891518157381,1040.6248123122955
442232.812,0.0003439999999827705,155.0,-987.0,-176.0,420.0,-840.0,-630.0,1014.4801624477435,1130.884609498246
442232.812,0.0003439999999827705,155.0,-986.0,-175.0,420.0,-770.0,-560.0,1013.3341008769023,1040.6248123122955
442232.812,0.0003439999999827705,156.0,-986.0,-176.0,420.0,-770.0,-560.0,1013.660692736973,1040.6248123122955
442232.812,0.0003439999999827705,156.0,-986.0,-176.0,420.0,-770.0,-630.0,1013.660692736973,1079.907403437906
442232.812,0.0003439999999827705,156.0,-986.0,-175.0,420.0,-700.0,-630.0,1013.4875430906884,1031.1643903859365
442232.812,0.0003439999999827705,157.0,-986.0,-175.0,420.0,-770.0,-700.0,1013.6419486189391,1122.1853679316978
442232.812,0.0003439999999827705,156.0,-986.0,-176.0,420.0,-770.0,-630.0,1013.660692736973,1079.907403437906
442232.812,0.0003439999999827705,156.0,-986.0,-176.0,490.0,-770.0,-560.0,1013.660692736973,1070.7940978544848
442232.812,0.0003439999999827705,155.0,-987.0,-175.0,420.0,-910.0,-490.0,1014.3071526909391,1115.616421535646
442232.812,0.0003439999999827705,155.0,-986.0,-175.0,350.0,-840.0,-630.0,1013.3341008769023,1106.7971810589327
442232.812,0.0003439999999827705,156.0,-986.0,-176.0,420.0,-700.0,-630.0,1013.660692736973,1031.1643903859365
442232.812,0.0003439999999827705,156.0,-987.0,-175.0,420.0,-770.0,-630.0,1014.4604477257849,1079.907403437906
442232.812,0.0003439999999827705,157.0,-986.0,-175.0,420.0,-700.0,-560.0,1013.6419486189391,989.9494936611666
442232.812,0.0003439999999827705,157.0,-986.0,-176.0,420.0,-770.0,-560.0,1013.8150718942779,1040.6248123122955
442232.812,0.0003439999999827705,156.0,-986.0,-176.0,420.0,-840.0,-560.0,1013.660692736973,1093.4349546269316
442232.812,0.0003439999999827705,154.0,-986.0,-175.0,420.0,-770.0,-560.0,1013.1816224152509,1040.6248123122955
442232.812,0.0003439999999827705,155.0,-986.0,-175.0,420.0,-770.0,-560.0,1013.3341008769023,1040.6248123122955
442232.812,0.0003439999999827705,155.0,-986.0,-175.0,490.0,-770.0,-560.0,1013.3341008769023,1070.7940978544848
442232.812,0.0003439999999827705,155.0,-986.0,-175.0,350.0,-770.0,-560.0,1013.3341008769023,1014.3963722332606
442232.812,0.0003439999999827705,155.0,-986.0,-175.0,420.0,-770.0,-630.0,1013.3341008769023,1079.907403437906
442232.984,0.0005160000000032596,156.0,-987.0,-175.0,350.0,-770.0,-560.0,1014.4604477257849,1014.3963722332606
442232.984,0.0005160000000032596,158.0,-987.0,-176.0,350.0,-770.0,-560.0,1014.9428555342414,1014.3963722332606
442232.984,0.0005160000000032596,156.0,-987.0,-176.0,350.0,-770.0,-490.0,1014.6334313435567,977.4968030638258
442232.984,0.0005160000000032596,155.0,-986.0,-176.0,420.0,-770.0,-560.0,1013.5072767375674,1040.6248123122955
442232.984,0.0005160000000032596,155.0,-985.0,-175.0,490.0,-770.0,-630.0,1012.3611015838172,1109.00856624284
442232.984,0.0005160000000032596,156.0,-987.0,-176.0,420.0,-700.0,-630.0,1014.6334313435567,1031.1643903859365
442232.984,0.0005160000000032596,156.0,-986.0,-175.0,420.0,-700.0,-630.0,1013.4875430906884,1031.1643903859365
442232.984,0.0005160000000032596,157.0,-986.0,-175.0,420.0,-700.0,-560.0,1013.6419486189391,989.9494936611666
442232.984,0.0005160000000032596,155.0,-987.0,-175.0,420.0,-770.0,-560.0,1014.3071526909391,1040.6248123122955
442232.984,0.0005160000000032596,158.0,-986.0,-176.0,420.0,-700.0,-630.0,1013.9704137695537,1031.1643903859365
442232.984,0.0005160000000032596,156.0,-986.0,-175.0,420.0,-770.0,-560.0,1013.4875430906884,1040.6248123122955
442232.984,0.0005160000000032596,156.0,-985.0,-176.0,420.0,-770.0,-490.0,1012.6880072361872,1004.6890066085126
442232.984,0.0005160000000032596,154.0,-986.0,-176.0,350.0,-770.0,-560.0,1013.3548243335106,1014.3963722332606
442232.984,0.0005160000000032596,155.0,-987.0,-175.0,420.0,-700.0,-630.0,1014.3071526909391,1031.1643903859365
442232.984,0.0005160000000032596,156.0,-987.0,-175.0,350.0,-700.0,-630.0,1014.4604477257849,1004.6890066085126
442232.984,0.0005160000000032596,157.0,-987.0,-175.0,420.0,-700.0,-630.0,1014.6147051960168,1031.1643903859365
442232.984,0.0005160000000032596,157.0,-986.0,-176.0,350.0,-770.0,-630.0,1013.8150718942779,1054.6563421323553
442232.984,0.0005160000000032596,156.0,-986.0,-177.0,420.0,-770.0,-490.0,1013.834799166018,1004.6890066085126
442232.984,0.0005160000000032596,155.0,-985.0,-175.0,350.0,-770.0,-560.0,1012.3611015838172,1014.3963722332606
442232.984,0.0005160000000032596,154.0,-986.0,-176.0,490.0,-770.0,-560.0,1013.3548243335106,1070.7940978544848
442233.171,0.0007029999999795109,155.0,-986.0,-176.0,420.0,-770.0,-560.0,1013.5072767375674,1040.6248123122955
442233.171,0.0007029999999795109,154.0,-987.0,-176.0,350.0,-770.0,-630.0,1014.3278562673905,1054.6563421323553
442233.171,0.0007029999999795109,156.0,-986.0,-175.0,490.0,-770.0,-630.0,1013.4875430906884,1109.00856624284
442233.171,0.0007029999999795109,157.0,-986.0,-176.0,420.0,-770.0,-630.0,1013.8150718942779,1079.907403437906
442233.171,0.0007029999999795109,157.0,-986.0,-175.0,420.0,-700.0,-560.0,1013.6419486189391,989.9494936611666
442233.171,0.0007029999999795109,156.0,-987.0,-176.0,490.0,-770.0,-560.0,1014.6334313435567,1070.7940978544848
442233.171,0.0007029999999795109,154.0,-987.0,-175.0,420.0,-840.0,-490.0,1014.1548205279113,1059.292216529509
442233.171,0.0007029999999795109,154.0,-987.0,-176.0,420.0,-770.0,-630.0,1014.3278562673905,1079.907403437906
442233.171,0.0007029999999795109,155.0,-987.0,-176.0,350.0,-770.0,-630.0,1014.4801624477435,1054.6563421323553
442233.171,0.0007029999999795109,156.0,-987.0,-175.0,420.0,-770.0,-560.0,1014.4604477257849,1040.6248123122955
442233.171,0.0007029999999795109,156.0,-987.0,-175.0,350.0,-770.0,-560.0,1014.4604477257849,1014.3963722332606
442233.171,0.0007029999999795109,156.0,-987.0,-176.0,350.0,-700.0,-630.0,1014.6334313435567,1004.6890066085126
442233.171,0.0007029999999795109,157.0,-986.0,-176.0,420.0,-770.0,-630.0,1013.8150718942779,1079.907403437906
442233.171,0.0007029999999795109,156.0,-986.0,-175.0,420.0,-840.0,-560.0,1013.4875430906884,1093.4349546269316
442233.171,0.0007029999999795109,155.0,-986.0,-176.0,420.0,-770.0,-490.0,1013.5072767375674,1004.6890066085126
442233.171,0.0007029999999795109,154.0,-986.0,-176.0,350.0,-840.0,-560.0,1013.3548243335106,1068.5036265731624
442233.171,0.0007029999999795109,154.0,-987.0,-175.0,350.0,-700.0,-560.0,1014.1548205279113,962.3408959407265
442233.171,0.0007029999999795109,155.0,-986.0,-175.0,420.0,-700.0,-630.0,1013.3341008769023,1031.1643903859365
442233.171,0.0007029999999795109,156.0,-987.0,-175.0,420.0,-700.0,-630.0,1014.4604477257849,1031.1643903859365
442233.171,0.0007029999999795109,157.0,-986.0,-175.0,350.0,-700.0,-630.0,1013.6419486189391,1004.6890066085126
442233.359,0.0008910000000032596,158.0,-986.0,-175.0,350.0,-770.0,-630.0,1013.7973170215041,1054.6563421323553
442233.359,0.0008910000000032596,157.0,-986.0,-176.0,350.0,-840.0,-490.0,1013.8150718942779,1033.537614216338
442233.359,0.0008910000000032596,155.0,-986.0,-175.0,420.0,-840.0,-560.0,1013.3341008769023,1093.4349546269316
442233.359,0.0008910000000032596,155.0,-987.0,-175.0,350.0,-770.0,-560.0,1014.3071526909391,1014.3963722332606
442233.359,0.0008910000000032596,154.0,-987.0,-175.0,420.0,-700.0,-630.0,1014.1548205279113,1031.1643903859365
442233.359,0.0008910000000032596,156.0,-986.0,-175.0,350.0,-700.0,-700.0,1013.4875430906884,1050.0
442233.359,0.0008910000000032596,157.0,-986.0,-175.0,280.0,-770.0,-700.0,1013.6419486189391,1077.6363022838457
442233.359,0.0008910000000032596,157.0,-987.0,-176.0,420.0,-770.0,-630.0,1014.7876625186177,1079.907403437906
442233.359,0.0008910000000032596,157.0,-987.0,-176.0,420.0,-840.0,-560.0,1014.7876625186177,1093.4349546269316
442233.359,0.0008910000000032596,155.0,-987.0,-176.0,420.0,-840.0,-490.0,1014.4801624477435,1059.292216529509
442233.359,0.0008910000000032596,155.0,-986.0,-175.0,350.0,-840.0,-490.0,1013.3341008769023,1033.537614216338
442233.359,0.0008910000000032596,154.0,-987.0,-176.0,420.0,-770.0,-630.0,1014.3278562673905,1079.907403437906
442233.359,0.0008910000000032596,154.0,-986.0,-175.0,420.0,-700.0,-630.0,1013.1816224152509,1031.1643903859365
442233.359,0.0008910000000032596,156.0,-986.0,-175.0,420.0,-770.0,-630.0,1013.4875430906884,1079.907403437906
442233.359,0.0008910000000032596,158.0,-985.0,-176.0,350.0,-770.0,-630.0,1012.9980256644136,1054.6563421323553
442233.359,0.0008910000000032596,156.0,-986.0,-176.0,420.0,-770.0,-560.0,1013.660692736973,1040.6248123122955
442233.359,0.0008910000000032596,157.0,-986.0,-176.0,420.0,-770.0,-560.0,1013.8150718942779,1040.6248123122955
442233.359,0.0008910000000032596,156.0,-986.0,-176.0,420.0,-840.0,-560.0,1013.660692736973,1093.4349546269316
442233.359,0.0008910000000032596,153.0,-987.0,-175.0,420.0,-840.0,-560.0,1014.0034516706538,1093.4349546269316
442233.359,0.0008910000000032596,154.0,-987.0,-175.0,350.0,-770.0,-630.0,1014.1548205279113,1054.6563421323553
442233.531,0.0010630000000237487,155.0,-987.0,-175.0,420.0,-770.0,-630.0,1014.3071526909391,1079.907403437906
442233.531,0.0010630000000237487,156.0,-987.0,-176.0,420.0,-700.0,-630.0,1014.6334313435567,1031.1643903859365
442233.531,0.0010630000000237487,157.0,-985.0,-175.0,490.0,-770.0,-630.0,1012.6692451141192,1109.00856624284
442233.531,0.0010630000000237487,156.0,-986.0,-176.0,560.0,-770.0,-560.0,1013.660692736973,1104.581368664165
442233.531,0.0010630000000237487,156.0,-987.0,-175.0,560.0,-840.0,-560.0,1014.4604477257849,1154.469575172945
442233.531,0.0010630000000237487,154.0,-987.0,-175.0,490.0,-840.0,-560.0,1014.1548205279113,1122.1853679316978
442233.531,0.0010630000000237487,154.0,-987.0,-175.0,350.0,-770.0,-560.0,1014.1548205279113,1014.3963722332606
442233.531,0.0010630000000237487,155.0,-987.0,-175.0,420.0,-700.0,-630.0,1014.3071526909391,1031.1643903859365
442233.531,0.0010630000000237487,156.0,-986.0,-175.0,350.0,-700.0,-630.0,1013.4875430906884,1004.6890066085126
442233.531,0.0010630000000237487,157.0,-987.0,-176.0,350.0,-770.0,-630.0,1014.7876625186177,1054.6563421323553
442233.531,0.0010630000000237487,157.0,-986.0,-176.0,420.0,-770.0,-700.0,1013.8150718942779,1122.1853679316978
442233.531,0.0010630000000237487,157.0,-986.0,-176.0,420.0,-840.0,-630.0,1013.8150718942779,1130.884609498246
442233.531,0.0010630000000237487,155.0,-986.0,-175.0,490.0,-840.0,-560.0,1013.3341008769023,1122.1853679316978
442233.531,0.0010630000000237487,154.0,-986.0,-175.0,420.0,-770.0,-560.0,1013.1816224152509,1040.6248123122955
442233.531,0.0010630000000237487,154.0,-987.0,-175.0,420.0,-770.0,-630.0,1014.1548205279113,1079.907403437906
442233.531,0.0010630000000237487,156.0,-987.0,-175.0,350.0,-770.0,-560.0,1014.4604477257849,1014.3963722332606
442233.531,0.0010630000000237487,157.0,-987.0,-176.0,350.0,-770.0,-630.0,1014.7876625186177,1054.6563421323553
442233.531,0.0010630000000237487,158.0,-987.0,-176.0,350.0,-770.0,-560.0,1014.9428555342414,1014.3963722332606
442233.531,0.0010630000000237487,157.0,-987.0,-176.0,420.0,-840.0,-560.0,1014.7876625186177,1093.4349546269316
442233.531,0.0010630000000237487,156.0,-986.0,-175.0,420.0,-770.0,-490.0,1013.4875430906884,1004.6890066085126
442233.718,0.00125,155.0,-987.0,-175.0,420.0,-770.0,-560.0,1014.3071526909391,1040.6248123122955
442233.718,0.00125,154.0,-986.0,-176.0,490.0,-770.0,-630.0,1013.3548243335106,1109.00856624284
442233.718,0.00125,155.0,-987.0,-176.0,420.0,-770.0,-630.0,1014.4801624477435,1079.907403437906
442233.718,0.00125,157.0,-987.0,-177.0,350.0,-700.0,-700.0,1014.9615756273732,1050.0
442233.718,0.00125,157.0,-986.0,-176.0,420.0,-770.0,-630.0,1013.8150718942779,1079.907403437906
442233.718,0.00125,158.0,-986.0,-176.0,490.0,-770.0,-560.0,1013.9704137695537,1070.7940978544848
442233.718,0.00125,156.0,-986.0,-176.0,420.0,-840.0,-560.0,1013.660692736973,1093.4349546269316
442233.718,0.00125,154.0,-987.0,-175.0,420.0,-840.0,-490.0,1014.1548205279113,1059.292216529509
442233.718,0.00125,154.0,-986.0,-175.0,490.0,-770.0,-560.0,1013.1816224152509,1070.7940978544848
442233.718,0.00125,155.0,-987.0,-175.0,350.0,-700.0,-630.0,1014.3071526909391,1004.6890066085126
442233.718,0.00125,156.0,-987.0,-176.0,420.0,-700.0,-630.0,1014.6334313435567,1031.1643903859365
442233.718,0.00125,156.0,-987.0,-176.0,420.0,-770.0,-630.0,1014.6334313435567,1079.907403437906
442233.718,0.00125,157.0,-986.0,-176.0,350.0,-770.0,-630.0,1013.8150718942779,1054.6563421323553
442233.718,0.00125,157.0,-986.0,-175.0,350.0,-770.0,-560.0,1013.6419486189391,1014.3963722332606
442233.718,0.00125,156.0,-987.0,-176.0,420.0,-770.0,-560.0,1014.6334313435567,1040.6248123122955
442233.718,0.00125,154.0,-987.0,-175.0,420.0,-770.0,-560.0,1014.1548205279113,1040.6248123122955
442233.718,0.00125,154.0,-986.0,-176.0,350.0,-770.0,-630.0,1013.3548243335106,1054.6563421323553
442233.718,0.00125,154.0,-987.0,-175.0,350.0,-700.0,-630.0,1014.1548205279113,1004.6890066085126
442233.718,0.00125,156.0,-986.0,-175.0,420.0,-700.0,-630.0,1013.4875430906884,1031.1643903859365
442233.718,0.00125,156.0,-987.0,-175.0,420.0,-770.0,-630.0,1014.4604477257849,1079.907403437906
442233.89,0.0014220000000204891,157.0,-986.0,-175.0,350.0,-770.0,-630.0,1013.6419486189391,1054.6563421323553
442233.89,0.0014220000000204891,156.0,-986.0,-176.0,350.0,-840.0,-560.0,1013.660692736973,1068.5036265731624
442233.89,0.0014220000000204891,155.0,-987.0,-176.0,420.0,-840.0,-560.0,1014.4801624477435,1093.4349546269316
442233.89,0.0014220000000204891,154.0,-987.0,-175.0,420.0,-770.0,-560.0,1014.1548205279113,1040.6248123122955
442233.89,0.0014220000000204891,154.0,-987.0,-175.0,350.0,-770.0,-630.0,1014.1548205279113,1054.6563421323553
442233.89,0.0014220000000204891,155.0,-986.0,-175.0,420.0,-770.0,-700.0,1013.3341008769023,1122.1853679316978
442233.89,0.0014220000000204891,157.0,-986.0,-176.0,420.0,-770.0,-630.0,1013.8150718942779,1079.907403437906
442233.89,0.0014220000000204891,157.0,-987.0,-176.0,490.0,-770.0,-560.0,1014.7876625186177,1070.7940978544848
442233.89,0.0014220000000204891,157.0,-987.0,-176.0,490.0,-840.0,-560.0,1014.7876625186177,1122.1853679316978
442233.89,0.0014220000000204891,156.0,-986.0,-175.0,490.0,-770.0,-490.0,1013.4875430906884,1035.905401086412
442233.89,0.0014220000000204891,155.0,-987.0,-175.0,490.0,-770.0,-560.0,1014.3071526909391,1070.7940978544848
442233.89,0.0014220000000204891,155.0,-987.0,-176.0,420.0,-840.0,-630.0,1014.4801624477435,1130.884609498246
442233.89,0.0014220000000204891,156.0,-986.0,-175.0,420.0,-770.0,-560.0,1013.4875430906884,1040.6248123122955
442233.89,0.0014220000000204891,157.0,-986.0,-175.0,420.0,-700.0,-560.0,1013.6419486189391,989.9494936611666
442233.89,0.0014220000000204891,156.0,-986.0,-175.0,490.0,-770.0,-560.0,1013.4875430906884,1070.7940978544848
442233.89,0.0014220000000204891,157.0,-986.0,-176.0,420.0,-770.0,-560.0,1013.8150718942779,1040.6248123122955
442233.89,0.0014220000000204891,156.0,-986.0,-176.0,420.0,-770.0,-560.0,1013.660692736973,1040.6248123122955
442233.89,0.0014220000000204891,154.0,-986.0,-175.0,420.0,-840.0,-560.0,1013.1816224152509,1093.4349546269316
442233.89,0.0014220000000204891,155.0,-986.0,-176.0,420.0,-840.0,-630.0,1013.5072767375674,1130.884609498246
442233.89,0.0014220000000204891,155.0,-987.0,-175.0,420.0,-770.0,-630.0,1014.3071526909391,1079.907403437906
442234.078,0.0016099999999860302,156.0,-987.0,-175.0,420.0,-770.0,-700.0,1014.4604477257849,1122.1853679316978
442234.078,0.0016099999999860302,157.0,-986.0,-176.0,350.0,-770.0,-630.0,1013.8150718942779,1054.6563421323553
442234.078,0.0016099999999860302,158.0,-986.0,-176.0,420.0,-770.0,-560.0,1013.9704137695537,1040.6248123122955
442234.078,0.0016099999999860302,156.0,-986.0,-175.0,420.0,-770.0,-630.0,1013.4875430906884,1079.907403437906
442234.078,0.0016099999999860302,155.0,-986.0,-175.0,420.0,-770.0,-560.0,1013.3341008769023,1040.6248123122955
442234.078,0.0016099999999860302,154.0,-987.0,-175.0,420.0,-840.0,-560.0,1014.1548205279113,1093.4349546269316
442234.078,0.0016099999999860302,154.0,-987.0,-175.0,420.0,-700.0,-630.0,1014.1548205279113,1031.1643903859365
442234.078,0.0016099999999860302,156.0,-986.0,-175.0,350.0,-770.0,-700.0,1013.4875430906884,1097.9070998950685
442234.078,0.0016099999999860302,156.0,-986.0,-176.0,420.0,-770.0,-630.0,1013.660692736973,1079.907403437906
442234.078,0.0016099999999860302,156.0,-985.0,-176.0,350.0,-770.0,-560.0,1012.6880072361872,1014.3963722332606
442234.078,0.0016099999999860302,156.0,-986.0,-176.0,420.0,-770.0,-560.0,1013.660692736973,1040.6248123122955
442234.078,0.0016099999999860302,157.0,-987.0,-175.0,490.0,-840.0,-560.0,1014.6147051960168,1122.1853679316978
442234.078,0.0016099999999860302,156.0,-986.0,-176.0,420.0,-770.0,-560.0,1013.660692736973,1040.6248123122955
442234.078,0.0016099999999860302,155.0,-986.0,-175.0,420.0,-770.0,-560.0,1013.3341008769023,1040.6248123122955
442234.078,0.0016099999999860302,155.0,-986.0,-175.0,420.0,-770.0,-630.0,1013.3341008769023,1079.907403437906
442234.078,0.0016099999999860302,155.0,-987.0,-176.0,350.0,-700.0,-560.0,1014.4801624477435,962.3408959407265
442234.078,0.0016099999999860302,155.0,-987.0,-174.0,420.0,-700.0,-630.0,1014.1350994813265,1031.1643903859365
442234.078,0.0016099999999860302,157.0,-987.0,-175.0,350.0,-770.0,-630.0,1014.6147051960168,1054.6563421323553
442234.078,0.0016099999999860302,157.0,-987.0,-176.0,420.0,-770.0,-630.0,1014.7876625186177,1079.907403437906
442234.078,0.0016099999999860302,156.0,-986.0,-175.0,420.0,-840.0,-560.0,1013.4875430906884,1093.4349546269316
442234.265,0.001797000000020489,156.0,-986.0,-176.0,420.0,-770.0,-630.0,1013.660692736973,1079.907403437906
442234.265,0.001797000000020489,155.0,-986.0,-175.0,420.0,-770.0,-560.0,1013.3341008769023,1040.6248123122955
442234.265,0.001797000000020489,155.0,-986.0,-175.0,420.0,-770.0,-630.0,1013.3341008769023,1079.907403437906
442234.265,0.001797000000020489,156.0,-987.0,-175.0,420.0,-700.0,-560.0,1014.4604477257849,989.9494936611666
442234.265,0.001797000000020489,155.0,-987.0,-176.0,420.0,-630.0,-560.0,1014.4801624477435,941.7536832951597
442234.265,0.001797000000020489,156.0,-987.0,-175.0,420.0,-770.0,-560.0,1014.4604477257849,1040.6248123122955
442234.265,0.001797000000020489,157.0,-987.0,-175.0,420.0,-770.0,-560.0,1014.6147051960168,1040.6248123122955
442234.265,0.001797000000020489,157.0,-987.0,-175.0,420.0,-770.0,-560.0,1014.6147051960168,1040.6248123122955
442234.265,0.001797000000020489,155.0,-986.0,-175.0,420.0,-840.0,-560.0,1013.3341008769023,1093.4349546269316
442234.265,0.001797000000020489,155.0,-986.0,-175.0,350.0,-840.0,-560.0,1013.3341008769023,1068.5036265731624
442234.265,0.001797000000020489,154.0,-986.0,-175.0,490.0,-770.0,-560.0,1013.1816224152509,1070.7940978544848
442234.265,0.001797000000020489,154.0,-986.0,-176.0,420.0,-770.0,-630.0,1013.3548243335106,1079.907403437906
442234.265,0.001797000000020489,157.0,-986.0,-175.0,420.0,-770.0,-560.0,1013.6419486189391,1040.6248123122955
442234.265,0.001797000000020489,157.0,-986.0,-177.0,350.0,-700.0,-560.0,1013.9891518157381,962.3408959407265
442234.265,0.001797000000020489,157.0,-987.0,-176.0,420.0,-700.0,-560.0,1014.7876625186177,989.9494936611666
442234.265,0.001797000000020489,157.0,-987.0,-176.0,420.0,-770.0,-560.0,1014.7876625186177,1040.6248123122955
442234.265,0.001797000000020489,157.0,-986.0,-177.0,350.0,-770.0,-560.0,1013.9891518157381,1014.3963722332606
442234.265,0.001797000000020489,155.0,-986.0,-176.0,420.0,-840.0,-560.0,1013.5072767375674,1093.4349546269316
442234.265,0.001797000000020489,156.0,-986.0,-176.0,490.0,-700.0,-560.0,1013.660692736973,1021.6163663528497
442234.265,0.001797000000020489,155.0,-985.0,-175.0,420.0,-700.0,-560.0,1012.3611015838172,989.9494936611666
442234.453,0.00198499999998603,156.0,-986.0,-175.0,420.0,-700.0,-630.0,1013.4875430906884,1031.1643903859365
442234.453,0.00198499999998603,155.0,-987.0,-175.0,350.0,-770.0,-630.0,1014.3071526909391,1054.6563421323553
442234.453,0.00198499999998603,156.0,-987.0,-176.0,420.0,-770.0,-630.0,1014.6334313435567,1079.907403437906
442234.453,0.00198499999998603,155.0,-987.0,-174.0,490.0,-770.0,-560.0,1014.1350994813265,1070.7940978544848
442234.453,0.00198499999998603,156.0,-986.0,-175.0,420.0,-770.0,-630.0,1013.4875430906884,1079.907403437906
442234.453,0.00198499999998603,155.0,-986.0,-176.0,420.0,-770.0,-560.0,1013.5072767375674,1040.6248123122955
442234.453,0.00198499999998603,155.0,-987.0,-176.0,420.0,-770.0,-560.0,1014.4801624477435,1040.6248123122955
442234.453,0.00198499999998603,155.0,-985.0,-176.0,420.0,-840.0,-560.0,1012.5344438585781,1093.4349546269316
442234.453,0.00198499999998603,156.0,-987.0,-176.0,490.0,-770.0,-560.0,1014.6334313435567,1070.7940978544848
442234.453,0.00198499999998603,155.0,-986.0,-175.0,420.0,-770.0,-560.0,1013.3341008769023,1040.6248123122955
442234.453,0.00198499999998603,155.0,-987.0,-176.0,420.0,-700.0,-630.0,1014.4801624477435,1031.1643903859365
442234.453,0.00198499999998603,157.0,-987.0,-175.0,420.0,-770.0,-560.0,1014.6147051960168,1040.6248123122955
442234.453,0.00198499999998603,157.0,-986.0,-175.0,420.0,-840.0,-560.0,1013.6419486189391,1093.4349546269316
442234.453,0.00198499999998603,155.0,-985.0,-175.0,420.0,-770.0,-560.0,1012.3611015838172,1040.6248123122955
442234.453,0.00198499999998603,155.0,-986.0,-176.0,420.0,-770.0,-560.0,1013.5072767375674,1040.6248123122955
442234.453,0.00198499999998603,155.0,-986.0,-175.0,420.0,-770.0,-490.0,1013.3341008769023,1004.6890066085126
442234.453,0.00198499999998603,154.0,-987.0,-175.0,350.0,-770.0,-630.0,1014.1548205279113,1054.6563421323553
442234.453,0.00198499999998603,156.0,-986.0,-175.0,350.0,-770.0,-560.0,1013.4875430906884,1014.3963722332606
442234.453,0.00198499999998603,156.0,-987.0,-175.0,420.0,-770.0,-560.0,1014.4604477257849,1040.6248123122955
442234.453,0.00198499999998603,157.0,-987.0,-176.0,490.0,-770.0,-630.0,1014.7876625186177,1109.00856624284
442234.625,0.002157000000006519,156.0,-986.0,-175.0,420.0,-770.0,-560.0,1013.4875430906884,1040.6248123122955
442234.625,0.002157000000006519,156.0,-987.0,-176.0,350.0,-770.0,-560.0,1014.6334313435567,1014.3963722332606
442234.625,0.002157000000006519,156.0,-986.0,-176.0,420.0,-770.0,-560.0,1013.660692736973,1040.6248123122955
442234.625,0.002157000000006519,154.0,-986.0,-175.0,420.0,-770.0,-630.0,1013.1816224152509,1079.907403437906
442234.625,0.002157000000006519,154.0,-987.0,-176.0,420.0,-770.0,-630.0,1014.3278562673905,1079.907403437906
442234.625,0.002157000000006519,155.0,-987.0,-176.0,350.0,-770.0,-630.0,1014.4801624477435,1054.6563421323553
442234.625,0.002157000000006519,156.0,-987.0,-176.0,350.0,-700.0,-630.0,1014.6334313435567,1004.6890066085126
442234.625,0.002157000000006519,157.0,-986.0,-176.0,420.0,-770.0,-560.0,1013.8150718942779,1040.6248123122955
442234.625,0.002157000000006519,157.0,-987.0,-176.0,280.0,-770.0,-490.0,1014.7876625186177,954.6727187890099
442234.625,0.002157000000006519,156.0,-986.0,-175.0,280.0,-770.0,-560.0,1013.4875430906884,992.4212815130478
442234.625,0.002157000000006519,155.0,-987.0,-175.0,420.0,-770.0,-560.0,1014.3071526909391,1040.6248123122955
442234.625,0.002157000000006519,155.0,-987.0,-175.0,420.0,-840.0,-560.0,1014.3071526909391,1093.4349546269316
442234.625,0.002157000000006519,155.0,-986.0,-175.0,420.0,-770.0,-560.0,1013.3341008769023,1040.6248123122955
442234.625,0.002157000000006519,156.0,-986.0,-175.0,420.0,-700.0,-560.0,1013.4875430906884,989.9494936611666
442234.625,0.002157000000006519,156.0,-986.0,-175.0,350.0,-770.0,-560.0,1013.4875430906884,1014.3963722332606
442234.625,0.002157000000006519,157.0,-986.0,-175.0,420.0,-700.0,-630.0,1013.6419486189391,1031.1643903859365
442234.625,0.002157000000006519,157.0,-986.0,-175.0,350.0,-840.0,-630.0,1013.6419486189391,1106.7971810589327
442234.625,0.002157000000006519,156.0,-987.0,-176.0,420.0,-840.0,-560.0,1014.6334313435567,1093.4349546269316
442234.625,0.002157000000006519,155.0,-985.0,-176.0,350.0,-840.0,-560.0,1012.5344438585781,1068.5036265731624
442234.625,0.002157000000006519,154.0,-986.0,-176.0,420.0,-770.0,-560.0,1013.3548243335106,1040.6248123122955
442234.812,0.0023439999999827705,155.0,-986.0,-175.0,420.0,-770.0,-560.0,1013.3341008769023,1040.6248123122955
442234.812,0.0023439999999827705,155.0,-987.0,-176.0,490.0,-770.0,-560.0,1014.4801624477435,1070.7940978544848
442234.812,0.0023439999999827705,156.0,-986.0,-176.0,420.0,-770.0,-630.0,1013.660692736973,1079.907403437906
442234.812,0.0023439999999827705,156.0,-986.0,-175.0,420.0,-700.0,-560.0,1013.4875430906884,989.9494936611666
442234.812,0.0023439999999827705,155.0,-987.0,-175.0,420.0,-770.0,-630.0,1014.3071526909391,1079.907403437906
442234.812,0.0023439999999827705,155.0,-987.0,-175.0,350.0,-840.0,-630.0,1014.3071526909391,1106.7971810589327
442234.812,0.0023439999999827705,156.0,-986.0,-175.0,350.0,-840.0,-630.0,1013.4875430906884,1106.7971810589327
442234.812,0.0023439999999827705,156.0,-986.0,-175.0,420.0,-840.0,-630.0,1013.4875430906884,1130.884609498246
442234.812,0.0023439999999827705,156.0,-986.0,-175.0,490.0,-770.0,-560.0,1013.4875430906884,1070.7940978544848
442234.812,0.0023439999999827705,158.0,-986.0,-175.0,490.0,-840.0,-560.0,1013.7973170215041,1122.1853679316978
442234.812,0.0023439999999827705,156.0,-985.0,-175.0,420.0,-840.0,-560.0,1012.5146912514406,1093.4349546269316
442234.812,0.0023439999999827705,156.0,-986.0,-175.0,420.0,-770.0,-560.0,1013.4875430906884,1040.6248123122955
442234.812,0.0023439999999827705,156.0,-986.0,-176.0,350.0,-770.0,-560.0,1013.660692736973,1014.3963722332606
442234.812,0.0023439999999827705,156.0,-986.0,-176.0,350.0,-770.0,-560.0,1013.660692736973,1014.3963722332606
442234.812,0.0023439999999827705,156.0,-986.0,-176.0,350.0,-770.0,-560.0,1013.660692736973,1014.3963722332606
442234.812,0.0023439999999827705,155.0,-986.0,-176.0,420.0,-840.0,-560.0,1013.5072767375674,1093.4349546269316
442234.812,0.0023439999999827705,156.0,-986.0,-176.0,490.0,-770.0,-630.0,1013.660692736973,1109.00856624284
442234.812,0.0023439999999827705,155.0,-985.0,-176.0,420.0,-770.0,-560.0,1012.5344438585781,1040.6248123122955
442234.812,0.0023439999999827705,155.0,-985.0,-175.0,420.0,-840.0,-560.0,1012.3611015838172,1093.4349546269316
442234.812,0.0023439999999827705,155.0,-986.0,-175.0,350.0,-770.0,-560.0,1013.3341008769023,1014.3963722332606
442234.984,0.0025160000000032596,156.0,-986.0,-175.0,350.0,-770.0,-630.0,1013.4875430906884,1054.6563421323553
442234.984,0.0025160000000032596,156.0,-987.0,-175.0,350.0,-770.0,-630.0,1014.4604477257849,1054.6563421323553
442234.984,0.0025160000000032596,157.0,-986.0,-175.0,420.0,-840.0,-630.0,1013.6419486189391,1130.884609498246
442234.984,0.0025160000000032596,157.0,-986.0,-176.0,420.0,-770.0,-560.0,1013.8150718942779,1040.6248123122955
442234.984,0.0025160000000032596,156.0,-986.0,-175.0,420.0,-770.0,-560.0,1013.4875430906884,1040.6248123122955
442234.984,0.0025160000000032596,156.0,-987.0,-175.0,490.0,-770.0,-560.0,1014.4604477257849,1070.7940978544848
442234.984,0.0025160000000032596,155.0,-987.0,-176.0,420.0,-770.0,-560.0,1014.4801624477435,1040.6248123122955
442234.984,0.0025160000000032596,156.0,-986.0,-176.0,350.0,-700.0,-490.0,1013.660692736973,923.3634170791044
442234.984,0.0025160000000032596,156.0,-987.0,-176.0,420.0,-770.0,-560.0,1014.6334313435567,1040.6248123122955
442234.984,0.0025160000000032596,156.0,-986.0,-176.0,420.0,-770.0,-630.0,1013.660692736973,1079.907403437906
442234.984,0.0025160000000032596,156.0,-986.0,-176.0,420.0,-840.0,-560.0,1013.660692736973,1093.4349546269316
442234.984,0.0025160000000032596,155.0,-987.0,-175.0,350.0,-770.0,-560.0,1014.3071526909391,1014.3963722332606
442234.984,0.0025160000000032596,155.0,-986.0,-175.0,420.0,-770.0,-560.0,1013.3341008769023,1040.6248123122955
442234.984,0.0025160000000032596,155.0,-986.0,-175.0,420.0,-770.0,-630.0,1013.3341008769023,1079.907403437906
442234.984,0.0025160000000032596,155.0,-986.0,-175.0,420.0,-770.0,-630.0,1013.3341008769023,1079.907403437906
442234.984,0.0025160000000032596,156.0,-986.0,-175.0,490.0,-770.0,-560.0,1013.4875430906884,1070.7940978544848
442234.984,0.0025160000000032596,156.0,-986.0,-175.0,350.0,-770.0,-630.0,1013.4875430906884,1054.6563421323553
442234.984,0.0025160000000032596,156.0,-987.0,-176.0,350.0,-770.0,-630.0,1014.6334313435567,1054.6563421323553
442234.984,0.0025160000000032596,157.0,-986.0,-175.0,350.0,-770.0,-630.0,1013.6419486189391,1054.6563421323553
442234.984,0.0025160000000032596,158.0,-987.0,-175.0,420.0,-770.0,-560.0,1014.7699246627286,1040.6248123122955
442235.187,0.0027189999999827704,155.0,-987.0,-177.0,420.0,-770.0,-560.0,1014.654128262434,1040.6248123122955
442235.187,0.0027189999999827704,154.0,-987.0,-176.0,420.0,-770.0,-560.0,1014.3278562673905,1040.6248123122955
442235.187,0.0027189999999827704,152.0,-985.0,-175.0,420.0,-770.0,-630.0,1011.9061221279374,1079.907403437906
442235.187,0.0027189999999827704,156.0,-987.0,-175.0,350.0,-770.0,-700.0,1014.4604477257849,1097.9070998950685
442235.187,0.0027189999999827704,156.0,-986.0,-176.0,350.0,-770.0,-700.0,1013.660692736973,1097.9070998950685
442235.187,0.0027189999999827704,160.0,-985.0,-176.0,420.0,-770.0,-630.0,1013.3118967030832,1079.907403437906
442235.187,0.0027189999999827704,159.0,-987.0,-173.0,420.0,-840.0,-490.0,1014.5831656399588,1059.292216529509
442235.187,0.0027189999999827704,155.0,-987.0,-176.0,420.0,-910.0,-350.0,1014.4801624477435,1061.602562167217
442235.187,0.0027189999999827704,153.0,-987.0,-177.0,420.0,-840.0,-490.0,1014.3505311281697,1059.292216529509
442235.187,0.0027189999999827704,153.0,-986.0,-175.0,420.0,-770.0,-630.0,1013.030108140918,1079.907403437906
442235.187,0.0027189999999827704,155.0,-987.0,-175.0,420.0,-700.0,-630.0,1014.3071526909391,1031.1643903859365
442235.187,0.0027189999999827704,153.0,-986.0,-177.0,420.0,-770.0,-630.0,1013.3775209663968,1079.907403437906
442235.187,0.0027189999999827704,158.0,-985.0,-175.0,420.0,-700.0,-700.0,1012.8247627304538,1075.3604047016051
442235.187,0.0027189999999827704,159.0,-987.0,-173.0,420.0,-700.0,-700.0,1014.5831656399588,1075.3604047016051
442235.187,0.0027189999999827704,161.0,-986.0,-176.0,420.0,-840.0,-490.0,1014.4422112668617,1059.292216529509
442235.187,0.0027189999999827704,156.0,-985.0,-176.0,490.0,-840.0,-420.0,1012.6880072361872,1059.292216529509
442235.187,0.0027189999999827704,155.0,-987.0,-174.0,420.0,-910.0,-420.0,1014.1350994813265,1086.6922287382017
442235.187,0.0027189999999827704,152.0,-987.0,-175.0,350.0,-770.0,-490.0,1013.853046550633,977.4968030638258
442235.187,0.0027189999999827704,151.0,-986.0,-177.0,350.0,-700.0,-560.0,1013.0774896324565,962.3408959407265
442235.187,0.0027189999999827704,155.0,-986.0,-176.0,350.0,-630.0,-700.0,1013.5072767375674,1004.6890066085126
442235.359,0.0028910000000032595,160.0,-986.0,-175.0,420.0,-700.0,-770.0,1014.1109406766105,1122.1853679316978
442235.359,0.0028910000000032595,159.0,-985.0,-176.0,420.0,-840.0,-630.0,1013.1544798301984,1130.884609498246
442235.359,0.0028910000000032595,158.0,-985.0,-176.0,420.0,-910.0,-490.0,1012.9980256644136,1115.616421535646
442235.359,0.0028910000000032595,156.0,-987.0,-174.0,420.0,-840.0,-490.0,1014.2884205195286,1059.292216529509
442235.359,0.0028910000000032595,153.0,-987.0,-175.0,420.0,-840.0,-490.0,1014.0034516706538,1059.292216529509
442235.359,0.0028910000000032595,152.0,-987.0,-176.0,420.0,-770.0,-560.0,1014.0261337855154,1040.6248123122955
442235.359,0.0028910000000032595,154.0,-987.0,-175.0,420.0,-700.0,-630.0,1014.1548205279113,1031.1643903859365
442235.359,0.0028910000000032595,156.0,-986.0,-175.0,350.0,-700.0,-700.0,1013.4875430906884,1050.0
442235.359,0.0028910000000032595,157.0,-986.0,-176.0,350.0,-700.0,-630.0,1013.8150718942779,1004.6890066085126
442235.359,0.0028910000000032595,159.0,-985.0,-176.0,350.0,-770.0,-560.0,1013.1544798301984,1014.3963722332606
442235.359,0.0028910000000032595,158.0,-987.0,-175.0,420.0,-840.0,-490.0,1014.7699246627286,1059.292216529509
442235.359,0.0028910000000032595,155.0,-986.0,-175.0,490.0,-840.0,-420.0,1013.3341008769023,1059.292216529509
442235.359,0.0028910000000032595,152.0,-987.0,-175.0,490.0,-840.0,-490.0,1013.853046550633,1088.9444430272831
442235.359,0.0028910000000032595,153.0,-987.0,-175.0,350.0,-770.0,-560.0,1014.0034516706538,1014.3963722332606
442235.359,0.0028910000000032595,154.0,-987.0,-175.0,350.0,-700.0,-700.0,1014.1548205279113,1050.0
442235.359,0.0028910000000032595,157.0,-985.0,-176.0,350.0,-700.0,-700.0,1012.8425346518579,1050.0
442235.359,0.0028910000000032595,159.0,-985.0,-175.0,420.0,-770.0,-630.0,1012.9812436565644,1079.907403437906
442235.359,0.0028910000000032595,159.0,-986.0,-174.0,420.0,-770.0,-560.0,1013.7815346513271,1040.6248123122955
442235.359,0.0028910000000032595,156.0,-986.0,-174.0,350.0,-910.0,-560.0,1013.3153507176332,1124.3664882946307
442235.359,0.0028910000000032595,155.0,-986.0,-175.0,420.0,-840.0,-490.0,1013.3341008769023,1059.292216529509
442235.546,0.0030779999999795108,154.0,-986.0,-175.0,350.0,-700.0,-490.0,1013.1816224152509,923.3634170791044
442235.546,0.0030779999999795108,153.0,-986.0,-175.0,420.0,-700.0,-560.0,1013.030108140918,989.9494936611666
442235.546,0.0030779999999795108,155.0,-986.0,-176.0,420.0,-700.0,-630.0,1013.5072767375674,1031.1643903859365
442235.546,0.0030779999999795108,157.0,-987.0,-176.0,420.0,-700.0,-630.0,1014.7876625186177,1031.1643903859365
442235.546,0.0030779999999795108,158.0,-986.0,-176.0,420.0,-700.0,-630.0,1013.9704137695537,1031.1643903859365
442235.546,0.0030779999999795108,157.0,-987.0,-177.0,420.0,-700.0,-560.0,1014.9615756273732,989.9494936611666
442235.546,0.0030779999999795108,156.0,-986.0,-176.0,490.0,-770.0,-560.0,1013.660692736973,1070.7940978544848
442235.546,0.0030779999999795108,155.0,-986.0,-175.0,490.0,-840.0,-560.0,1013.3341008769023,1122.1853679316978
442235.546,0.0030779999999795108,154.0,-987.0,-176.0,420.0,-700.0,-560.0,1014.3278562673905,989.9494936611666
442235.546,0.0030779999999795108,154.0,-987.0,-175.0,420.0,-770.0,-630.0,1014.1548205279113,1079.907403437906
442235.546,0.0030779999999795108,155.0,-987.0,-175.0,420.0,-770.0,-700.0,1014.3071526909391,1122.1853679316978
442235.546,0.0030779999999795108,156.0,-987.0,-176.0,420.0,-700.0,-630.0,1014.6334313435567,1031.1643903859365
442235.546,0.0030779999999795108,158.0,-988.0,-175.0,420.0,-770.0,-630.0,1015.7425855008738,1079.907403437906
442235.546,0.0030779999999795108,158.0,-987.0,-175.0,420.0,-840.0,-630.0,1014.7699246627286,1130.884609498246
442235.546,0.0030779999999795108,158.0,-986.0,-176.0,420.0,-840.0,-560.0,1013.9704137695537,1093.4349546269316
442235.546,0.0030779999999795108,157.0,-986.0,-176.0,350.0,-840.0,-560.0,1013.8150718942779,1068.5036265731624
442235.546,0.0030779999999795108,155.0,-986.0,-176.0,420.0,-840.0,-490.0,1013.5072767375674,1059.292216529509
442235.546,0.0030779999999795108,153.0,-986.0,-174.0,420.0,-770.0,-560.0,1012.8578380009704,1040.6248123122955
442235.546,0.0030779999999795108,155.0,-987.0,-175.0,420.0,-770.0,-560.0,1014.3071526909391,1040.6248123122955
442235.546,0.0030779999999795108,155.0,-987.0,-175.0,420.0,-700.0,-630.0,1014.3071526909391,1031.1643903859365
442235.718,0.00325,156.0,-987.0,-175.0,420.0,-700.0,-700.0,1014.4604477257849,1075.3604047016051
442235.718,0.00325,157.0,-986.0,-176.0,420.0,-770.0,-630.0,1013.8150718942779,1079.907403437906
442235.718,0.00325,155.0,-986.0,-175.0,420.0,-840.0,-560.0,1013.3341008769023,1093.4349546269316
442235.718,0.00325,156.0,-986.0,-175.0,420.0,-910.0,-490.0,1013.4875430906884,1115.616421535646
442235.718,0.00325,154.0,-986.0,-176.0,420.0,-770.0,-560.0,1013.3548243335106,1040.6248123122955
442235.718,0.00325,153.0,-987.0,-175.0,420.0,-770.0,-560.0,1014.0034516706538,1040.6248123122955
442235.718,0.00325,155.0,-987.0,-175.0,420.0,-700.0,-560.0,1014.3071526909391,989.9494936611666
442235.718,0.00325,156.0,-986.0,-176.0,420.0,-700.0,-700.0,1013.660692736973,1075.3604047016051
442235.718,0.00325,158.0,-986.0,-177.0,420.0,-770.0,-630.0,1014.1444670262714,1079.907403437906
442235.718,0.00325,158.0,-986.0,-176.0,420.0,-770.0,-560.0,1013.9704137695537,1040.6248123122955
442235.718,0.00325,157.0,-987.0,-176.0,420.0,-840.0,-560.0,1014.7876625186177,1093.4349546269316
442235.718,0.00325,155.0,-986.0,-176.0,420.0,-910.0,-560.0,1013.5072767375674,1148.0853626799708
442235.718,0.00325,154.0,-986.0,-174.0,420.0,-840.0,-560.0,1013.0093780414868,1093.4349546269316
442235.718,0.00325,155.0,-986.0,-175.0,420.0,-700.0,-560.0,1013.3341008769023,989.9494936611666
442235.718,0.00325,155.0,-987.0,-175.0,350.0,-700.0,-560.0,1014.3071526909391,962.3408959407265
442235.718,0.00325,155.0,-986.0,-175.0,420.0,-770.0,-630.0,1013.3341008769023,1079.907403437906
442235.718,0.00325,157.0,-986.0,-175.0,350.0,-770.0,-630.0,1013.6419486189391,1054.6563421323553
442235.718,0.00325,156.0,-986.0,-175.0,350.0,-770.0,-560.0,1013.4875430906884,1014.3963722332606
442235.718,0.00325,155.0,-986.0,-176.0,420.0,-910.0,-560.0,1013.5072767375674,1148.0853626799708
442235.718,0.00325,155.0,-987.0,-175.0,420.0,-840.0,-560.0,1014.3071526909391,1093.4349546269316
442235.906,0.003438000000023749,154.0,-986.0,-175.0,420.0,-770.0,-560.0,1013.1816224152509,1040.6248123122955
442235.906,0.003438000000023749,155.0,-987.0,-176.0,420.0,-700.0,-700.0,1014.4801624477435,1075.3604047016051
442235.906,0.003438000000023749,157.0,-986.0,-175.0,420.0,-700.0,-630.0,1013.6419486189391,1031.1643903859365
442235.906,0.003438000000023749,157.0,-986.0,-175.0,490.0,-770.0,-560.0,1013.6419486189391,1070.7940978544848
442235.906,0.003438000000023749,157.0,-986.0,-175.0,420.0,-770.0,-630.0,1013.6419486189391,1079.907403437906
442235.906,0.003438000000023749,156.0,-987.0,-176.0,420.0,-770.0,-490.0,1014.6334313435567,1004.6890066085126
442235.906,0.003438000000023749,156.0,-987.0,-175.0,350.0,-770.0,-490.0,1014.4604477257849,977.4968030638258
442235.906,0.003438000000023749,155.0,-986.0,-176.0,420.0,-840.0,-560.0,1013.5072767375674,1093.4349546269316
442235.906,0.003438000000023749,155.0,-987.0,-176.0,420.0,-840.0,-630.0,1014.4801624477435,1130.884609498246
442235.906,0.003438000000023749,155.0,-986.0,-177.0,350.0,-700.0,-630.0,1013.6814095168165,1004.6890066085126
442235.906,0.003438000000023749,156.0,-986.0,-176.0,420.0,-770.0,-630.0,1013.660692736973,1079.907403437906
442235.906,0.003438000000023749,156.0,-986.0,-175.0,420.0,-770.0,-560.0,1013.4875430906884,1040.6248123122955
442235.906,0.003438000000023749,156.0,-986.0,-175.0,350.0,-840.0,-630.0,1013.4875430906884,1106.7971810589327
442235.906,0.003438000000023749,155.0,-986.0,-176.0,420.0,-840.0,-630.0,1013.5072767375674,1130.884609498246
442235.906,0.003438000000023749,155.0,-986.0,-176.0,420.0,-840.0,-630.0,1013.5072767375674,1130.884609498246
442235.906,0.003438000000023749,156.0,-986.0,-176.0,350.0,-770.0,-630.0,1013.660692736973,1054.6563421323553
442235.906,0.003438000000023749,157.0,-986.0,-176.0,490.0,-770.0,-560.0,1013.8150718942779,1070.7940978544848
442235.906,0.003438000000023749,155.0,-986.0,-175.0,420.0,-700.0,-630.0,1013.3341008769023,1031.1643903859365
442235.906,0.003438000000023749,156.0,-986.0,-175.0,420.0,-770.0,-560.0,1013.4875430906884,1040.6248123122955
442235.906,0.003438000000023749,156.0,-986.0,-176.0,420.0,-770.0,-630.0,1013.660692736973,1079.907403437906
442236.078,0.00360999999998603,156.0,-987.0,-176.0,490.0,-700.0,-560.0,1014.6334313435567,1021.6163663528497
442236.078,0.00360999999998603,156.0,-986.0,-176.0,420.0,-700.0,-490.0,1013.660692736973,952.102935611481
442236.078,0.00360999999998603,155.0,-986.0,-175.0,420.0,-770.0,-560.0,1013.3341008769023,1040.6248123122955
442236.078,0.00360999999998603,155.0,-986.0,-175.0,420.0,-770.0,-560.0,1013.3341008769023,1040.6248123122955
442236.078,0.00360999999998603,155.0,-986.0,-176.0,420.0,-770.0,-560.0,1013.5072767375674,1040.6248123122955
442236.078,0.00360999999998603,156.0,-987.0,-175.0,420.0,-770.0,-700.0,1014.4604477257849,1122.1853679316978
442236.078,0.00360999999998603,156.0,-987.0,-175.0,420.0,-770.0,-630.0,1014.4604477257849,1079.907403437906
442236.078,0.00360999999998603,156.0,-986.0,-175.0,490.0,-770.0,-630.0,1013.4875430906884,1109.00856624284
442236.078,0.00360999999998603,155.0,-986.0,-175.0,420.0,-770.0,-630.0,1013.3341008769023,1079.907403437906
442236.078,0.00360999999998603,155.0,-986.0,-175.0,420.0,-770.0,-630.0,1013.3341008769023,1079.907403437906
442236.078,0.00360999999998603,155.0,-985.0,-176.0,420.0,-770.0,-630.0,1012.5344438585781,1079.907403437906
442236.078,0.00360999999998603,157.0,-986.0,-175.0,350.0,-770.0,-560.0,1013.6419486189391,1014.3963722332606
442236.078,0.00360999999998603,157.0,-986.0,-176.0,350.0,-770.0,-560.0,1013.8150718942779,1014.3963722332606
442236.078,0.00360999999998603,157.0,-986.0,-175.0,420.0,-770.0,-560.0,1013.6419486189391,1040.6248123122955
442236.078,0.00360999999998603,155.0,-987.0,-175.0,350.0,-770.0,-560.0,1014.3071526909391,1014.3963722332606
442236.078,0.00360999999998603,156.0,-986.0,-175.0,420.0,-770.0,-560.0,1013.4875430906884,1040.6248123122955
442236.078,0.00360999999998603,155.0,-986.0,-175.0,350.0,-770.0,-560.0,1013.3341008769023,1014.3963722332606
442236.078,0.00360999999998603,155.0,-986.0,-175.0,350.0,-700.0,-630.0,1013.3341008769023,1004.6890066085126
442236.078,0.00360999999998603,156.0,-987.0,-175.0,350.0,-700.0,-630.0,1014.4604477257849,1004.6890066085126
442236.078,0.00360999999998603,157.0,-987.0,-175.0,350.0,-840.0,-560.0,1014.6147051960168,1068.5036265731624
442236.265,0.0037970000000204893,157.0,-986.0,-176.0,490.0,-840.0,-560.0,1013.8150718942779,1122.1853679316978
442236.265,0.0037970000000204893,157.0,-986.0,-175.0,420.0,-840.0,-630.0,1013.6419486189391,1130.884609498246
442236.265,0.0037970000000204893,155.0,-986.0,-175.0,420.0,-840.0,-630.0,1013.3341008769023,1130.884609498246
442236.265,0.0037970000000204893,155.0,-987.0,-175.0,420.0,-770.0,-630.0,1014.3071526909391,1079.907403437906
442236.265,0.0037970000000204893,156.0,-986.0,-176.0,420.0,-700.0,-700.0,1013.660692736973,1075.3604047016051
442236.265,0.0037970000000204893,156.0,-986.0,-176.0,420.0,-700.0,-630.0,1013.660692736973,1031.1643903859365
442236.265,0.0037970000000204893,157.0,-987.0,-175.0,490.0,-770.0,-630.0,1014.6147051960168,1109.00856624284
442236.265,0.0037970000000204893,157.0,-986.0,-175.0,350.0,-770.0,-630.0,1013.6419486189391,1054.6563421323553
442236.265,0.0037970000000204893,155.0,-986.0,-176.0,420.0,-770.0,-560.0,1013.5072767375674,1040.6248123122955
442236.265,0.0037970000000204893,155.0,-987.0,-175.0,350.0,-770.0,-490.0,1014.3071526909391,977.4968030638258
442236.265,0.0037970000000204893,155.0,-987.0,-175.0,420.0,-770.0,-560.0,1014.3071526909391,1040.6248123122955
442236.265,0.0037970000000204893,155.0,-987.0,-175.0,490.0,-770.0,-630.0,1014.3071526909391,1109.00856624284
442236.265,0.0037970000000204893,156.0,-986.0,-175.0,420.0,-770.0,-630.0,1013.4875430906884,1079.907403437906
442236.265,0.0037970000000204893,157.0,-986.0,-175.0,420.0,-700.0,-630.0,1013.6419486189391,1031.1643903859365
442236.265,0.0037970000000204893,156.0,-986.0,-175.0,350.0,-700.0,-630.0,1013.4875430906884,1004.6890066085126
442236.265,0.0037970000000204893,156.0,-986.0,-174.0,420.0,-840.0,-560.0,1013.3153507176332,1093.4349546269316
442236.265,0.0037970000000204893,156.0,-986.0,-175.0,350.0,-770.0,-560.0,1013.4875430906884,1014.3963722332606
442236.265,0.0037970000000204893,156.0,-986.0,-175.0,350.0,-770.0,-560.0,1013.4875430906884,1014.3963722332606
442236.265,0.0037970000000204893,156.0,-985.0,-176.0,350.0,-770.0,-630.0,1012.6880072361872,1054.6563421323553
442236.265,0.0037970000000204893,156.0,-986.0,-176.0,420.0,-700.0,-560.0,1013.660692736973,989.9494936611666
442236.437,0.00396899999998277,156.0,-986.0,-176.0,350.0,-700.0,-560.0,1013.660692736973,962.3408959407265
442236.437,0.00396899999998277,155.0,-986.0,-175.0,490.0,-770.0,-490.0,1013.3341008769023,1035.905401086412
442236.437,0.00396899999998277,156.0,-986.0,-174.0,420.0,-700.0,-560.0,1013.3153507176332,989.9494936611666
442236.437,0.00396899999998277,154.0,-987.0,-175.0,420.0,-770.0,-630.0,1014.1548205279113,1079.907403437906
442236.437,0.00396899999998277,156.0,-987.0,-175.0,420.0,-770.0,-630.0,1014.4604477257849,1079.907403437906
442236.437,0.00396899999998277,156.0,-986.0,-176.0,350.0,-700.0,-630.0,1013.660692736973,1004.6890066085126
442236.437,0.00396899999998277,156.0,-986.0,-175.0,350.0,-770.0,-560.0,1013.4875430906884,1014.3963722332606
442236.437,0.00396899999998277,157.0,-986.0,-175.0,420.0,-840.0,-560.0,1013.6419486189391,1093.4349546269316
442236.437,0.00396899999998277,155.0,-986.0,-174.0,420.0,-840.0,-560.0,1013.1618824255086,1093.4349546269316
442236.437,0.00396899999998277,155.0,-986.0,-175.0,350.0,-770.0,-630.0,1013.3341008769023,1054.6563421323553
442236.437,0.00396899999998277,155.0,-986.0,-175.0,350.0,-770.0,-560.0,1013.3341008769023,1014.3963722332606
442236.437,0.00396899999998277,156.0,-987.0,-175.0,420.0,-770.0,-560.0,1014.4604477257849,1040.6248123122955
442236.437,0.00396899999998277,157.0,-987.0,-175.0,420.0,-770.0,-630.0,1014.6147051960168,1079.907403437906
442236.437,0.00396899999998277,158.0,-986.0,-175.0,350.0,-770.0,-560.0,1013.7973170215041,1014.3963722332606
442236.437,0.00396899999998277,157.0,-985.0,-175.0,490.0,-770.0,-560.0,1012.6692451141192,1070.7940978544848
442236.437,0.00396899999998277,156.0,-986.0,-175.0,420.0,-840.0,-560.0,1013.4875430906884,1093.4349546269316
442236.437,0.00396899999998277,155.0,-987.0,-174.0,420.0,-770.0,-490.0,1014.1350994813265,1004.6890066085126
442236.437,0.00396899999998277,155.0,-987.0,-174.0,420.0,-700.0,-630.0,1014.1350994813265,1031.1643903859365
442236.437,0.00396899999998277,155.0,-987.0,-175.0,420.0,-770.0,-630.0,1014.3071526909391,1079.907403437906
442236.437,0.00396899999998277,156.0,-987.0,-175.0,420.0,-770.0,-630.0,1014.4604477257849,1079.907403437906
442236.625,0.004157000000006519,156.0,-986.0,-175.0,420.0,-770.0,-630.0,1013.4875430906884,1079.907403437906
442236.625,0.004157000000006519,157.0,-986.0,-174.0,490.0,-840.0,-560.0,1013.4697824799712,1122.1853679316978
442236.625,0.004157000000006519,156.0,-986.0,-174.0,420.0,-840.0,-560.0,1013.3153507176332,1093.4349546269316
442236.625,0.004157000000006519,156.0,-986.0,-175.0,490.0,-840.0,-560.0,1013.4875430906884,1122.1853679316978
442236.625,0.004157000000006519,155.0,-987.0,-175.0,420.0,-840.0,-630.0,1014.3071526909391,1130.884609498246
442236.625,0.004157000000006519,155.0,-987.0,-176.0,420.0,-770.0,-630.0,1014.4801624477435,1079.907403437906
442236.625,0.004157000000006519,156.0,-986.0,-176.0,420.0,-770.0,-630.0,1013.660692736973,1079.907403437906
442236.625,0.004157000000006519,157.0,-986.0,-175.0,420.0,-770.0,-560.0,1013.6419486189391,1040.6248123122955
442236.625,0.004157000000006519,157.0,-986.0,-176.0,350.0,-770.0,-560.0,1013.8150718942779,1014.3963722332606
442236.625,0.004157000000006519,156.0,-986.0,-175.0,420.0,-770.0,-490.0,1013.4875430906884,1004.6890066085126
442236.625,0.004157000000006519,155.0,-986.0,-175.0,420.0,-770.0,-490.0,1013.3341008769023,1004.6890066085126
442236.625,0.004157000000006519,155.0,-986.0,-175.0,350.0,-700.0,-630.0,1013.3341008769023,1004.6890066085126
442236.625,0.004157000000006519,155.0,-987.0,-175.0,420.0,-770.0,-630.0,1014.3071526909391,1079.907403437906
442236.625,0.004157000000006519,155.0,-987.0,-175.0,420.0,-770.0,-560.0,1014.3071526909391,1040.6248123122955
442236.625,0.004157000000006519,156.0,-986.0,-175.0,420.0,-770.0,-630.0,1013.4875430906884,1079.907403437906
442236.625,0.004157000000006519,156.0,-986.0,-175.0,420.0,-770.0,-630.0,1013.4875430906884,1079.907403437906
442236.625,0.004157000000006519,156.0,-986.0,-176.0,420.0,-840.0,-560.0,1013.660692736973,1093.4349546269316
442236.625,0.004157000000006519,156.0,-986.0,-176.0,420.0,-770.0,-560.0,1013.660692736973,1040.6248123122955
442236.625,0.004157000000006519,155.0,-987.0,-175.0,420.0,-840.0,-560.0,1014.3071526909391,1093.4349546269316
442236.625,0.004157000000006519,156.0,-986.0,-175.0,420.0,-770.0,-560.0,1013.4875430906884,1040.6248123122955
442236.812,0.0043439999999827705,156.0,-987.0,-174.0,490.0,-770.0,-560.0,1014.2884205195286,1070.7940978544848
442236.812,0.0043439999999827705,156.0,-986.0,-175.0,420.0,-770.0,-560.0,1013.4875430906884,1040.6248123122955
442236.812,0.0043439999999827705,155.0,-986.0,-175.0,420.0,-770.0,-630.0,1013.3341008769023,1079.907403437906
442236.812,0.0043439999999827705,156.0,-986.0,-175.0,420.0,-770.0,-630.0,1013.4875430906884,1079.907403437906
442236.812,0.0043439999999827705,156.0,-987.0,-175.0,350.0,-700.0,-560.0,1014.4604477257849,962.3408959407265
442236.812,0.0043439999999827705,156.0,-986.0,-175.0,420.0,-700.0,-560.0,1013.4875430906884,989.9494936611666
442236.812,0.0043439999999827705,156.0,-986.0,-175.0,350.0,-700.0,-630.0,1013.4875430906884,1004.6890066085126
442236.812,0.0043439999999827705,155.0,-986.0,-175.0,420.0,-770.0,-560.0,1013.3341008769023,1040.6248123122955
442236.812,0.0043439999999827705,155.0,-986.0,-175.0,420.0,-770.0,-560.0,1013.3341008769023,1040.6248123122955
442236.812,0.0043439999999827705,155.0,-987.0,-175.0,350.0,-770.0,-560.0,1014.3071526909391,1014.3963722332606
442236.812,0.0043439999999827705,156.0,-986.0,-176.0,350.0,-840.0,-630.0,1013.660692736973,1106.7971810589327
442236.812,0.0043439999999827705,155.0,-986.0,-175.0,420.0,-770.0,-630.0,1013.3341008769023,1079.907403437906
442236.812,0.0043439999999827705,156.0,-986.0,-175.0,420.0,-770.0,-560.0,1013.4875430906884,1040.6248123122955
442236.812,0.0043439999999827705,157.0,-986.0,-175.0,350.0,-770.0,-560.0,1013.6419486189391,1014.3963722332606
442236.812,0.0043439999999827705,157.0,-987.0,-175.0,420.0,-840.0,-630.0,1014.6147051960168,1130.884609498246
442236.812,0.0043439999999827705,156.0,-986.0,-175.0,350.0,-770.0,-560.0,1013.4875430906884,1014.3963722332606
442236.812,0.0043439999999827705,154.0,-986.0,-176.0,350.0,-770.0,-560.0,1013.3548243335106,1014.3963722332606
442236.812,0.0043439999999827705,155.0,-986.0,-174.0,350.0,-770.0,-560.0,1013.1618824255086,1014.3963722332606
442236.812,0.0043439999999827705,156.0,-987.0,-175.0,420.0,-770.0,-560.0,1014.4604477257849,1040.6248123122955
442236.812,0.0043439999999827705,155.0,-986.0,-176.0,420.0,-700.0,-560.0,1013.5072767375674,989.9494936611666
442237.0,0.0045320000000065195,156.0,-987.0,-174.0,350.0,-700.0,-560.0,1014.2884205195286,962.3408959407265
442237.0,0.0045320000000065195,156.0,-987.0,-175.0,420.0,-700.0,-560.0,1014.4604477257849,989.9494936611666
442237.0,0.0045320000000065195,155.0,-986.0,-175.0,350.0,-840.0,-560.0,1013.3341008769023,1068.5036265731624
442237.0,0.0045320000000065195,155.0,-987.0,-174.0,420.0,-840.0,-630.0,1014.1350994813265,1130.884609498246
442237.0,0.0045320000000065195,156.0,-987.0,-174.0,490.0,-840.0,-630.0,1014.2884205195286,1158.7061750072794
442237.0,0.0045320000000065195,157.0,-986.0,-174.0,420.0,-770.0,-630.0,1013.4697824799712,1079.907403437906
442237.0,0.0045320000000065195,157.0,-985.0,-175.0,420.0,-770.0,-560.0,1012.6692451141192,1040.6248123122955
442237.0,0.0045320000000065195,155.0,-986.0,-175.0,350.0,-840.0,-560.0,1013.3341008769023,1068.5036265731624
442237.0,0.0045320000000065195,155.0,-987.0,-175.0,420.0,-770.0,-560.0,1014.3071526909391,1040.6248123122955
442237.0,0.0045320000000065195,154.0,-986.0,-174.0,420.0,-700.0,-560.0,1013.0093780414868,989.9494936611666
442237.0,0.0045320000000065195,155.0,-987.0,-175.0,350.0,-630.0,-630.0,1014.3071526909391,957.235603182414
442237.0,0.0045320000000065195,157.0,-987.0,-175.0,350.0,-770.0,-630.0,1014.6147051960168,1054.6563421323553
442237.0,0.0045320000000065195,157.0,-986.0,-175.0,420.0,-770.0,-630.0,1013.6419486189391,1079.907403437906
442237.0,0.0045320000000065195,156.0,-986.0,-175.0,420.0,-840.0,-560.0,1013.4875430906884,1093.4349546269316
442237.0,0.0045320000000065195,156.0,-985.0,-175.0,420.0,-840.0,-560.0,1012.5146912514406,1093.4349546269316
442237.0,0.0045320000000065195,154.0,-985.0,-175.0,490.0,-840.0,-560.0,1012.2084765501621,1122.1853679316978
442237.0,0.0045320000000065195,154.0,-986.0,-175.0,420.0,-840.0,-630.0,1013.1816224152509,1130.884609498246
442237.0,0.0045320000000065195,155.0,-986.0,-174.0,420.0,-770.0,-630.0,1013.1618824255086,1079.907403437906
442237.0,0.0045320000000065195,156.0,-987.0,-174.0,350.0,-770.0,-700.0,1014.2884205195286,1097.9070998950685
442237.0,0.0045320000000065195,158.0,-986.0,-175.0,420.0,-700.0,-700.0,1013.7973170215041,1075.3604047016051
442237.171,0.004702999999979511,157.0,-986.0,-176.0,420.0,-840.0,-560.0,1013.8150718942779,1093.4349546269316
442237.171,0.004702999999979511,157.0,-986.0,-175.0,420.0,-770.0,-490.0,1013.6419486189391,1004.6890066085126
442237.171,0.004702999999979511,155.0,-986.0,-176.0,350.0,-770.0,-490.0,1013.5072767375674,977.4968030638258
442237.171,0.004702999999979511,154.0,-986.0,-176.0,420.0,-770.0,-490.0,1013.3548243335106,1004.6890066085126
442237.171,0.004702999999979511,154.0,-987.0,-175.0,490.0,-700.0,-560.0,1014.1548205279113,1021.6163663528497
442237.171,0.004702999999979511,155.0,-987.0,-175.0,350.0,-630.0,-630.0,1014.3071526909391,957.235603182414
442237.171,0.004702999999979511,157.0,-987.0,-175.0,350.0,-700.0,-630.0,1014.6147051960168,1004.6890066085126
442237.171,0.004702999999979511,158.0,-986.0,-175.0,420.0,-840.0,-630.0,1013.7973170215041,1130.884609498246
442237.171,0.004702999999979511,156.0,-985.0,-176.0,420.0,-840.0,-560.0,1012.6880072361872,1093.4349546269316
442237.171,0.004702999999979511,154.0,-987.0,-175.0,490.0,-840.0,-490.0,1014.1548205279113,1088.9444430272831
442237.171,0.004702999999979511,154.0,-987.0,-175.0,420.0,-910.0,-560.0,1014.1548205279113,1148.0853626799708
442237.171,0.004702999999979511,154.0,-987.0,-175.0,350.0,-840.0,-560.0,1014.1548205279113,1068.5036265731624
442237.171,0.004702999999979511,156.0,-986.0,-175.0,350.0,-700.0,-630.0,1013.4875430906884,1004.6890066085126
442237.171,0.004702999999979511,157.0,-986.0,-176.0,350.0,-700.0,-700.0,1013.8150718942779,1050.0
442237.171,0.004702999999979511,158.0,-986.0,-176.0,350.0,-770.0,-630.0,1013.9704137695537,1054.6563421323553
442237.171,0.004702999999979511,158.0,-987.0,-175.0,490.0,-770.0,-560.0,1014.7699246627286,1070.7940978544848
442237.171,0.004702999999979511,157.0,-986.0,-175.0,420.0,-840.0,-560.0,1013.6419486189391,1093.4349546269316
442237.171,0.004702999999979511,154.0,-986.0,-175.0,420.0,-840.0,-560.0,1013.1816224152509,1093.4349546269316
442237.171,0.004702999999979511,154.0,-986.0,-175.0,420.0,-770.0,-560.0,1013.1816224152509,1040.6248123122955
442237.171,0.004702999999979511,154.0,-986.0,-175.0,420.0,-840.0,-630.0,1013.1816224152509,1130.884609498246
442237.359,0.00489100000000326,155.0,-987.0,-175.0,420.0,-770.0,-630.0,1014.3071526909391,1079.907403437906
442237.359,0.00489100000000326,157.0,-987.0,-175.0,420.0,-700.0,-700.0,1014.6147051960168,1075.3604047016051
442237.359,0.00489100000000326,158.0,-986.0,-175.0,420.0,-770.0,-560.0,1013.7973170215041,1040.6248123122955
442237.359,0.00489100000000326,156.0,-986.0,-175.0,420.0,-840.0,-560.0,1013.4875430906884,1093.4349546269316
442237.359,0.00489100000000326,156.0,-986.0,-175.0,350.0,-840.0,-560.0,1013.4875430906884,1068.5036265731624
442237.359,0.00489100000000326,155.0,-986.0,-175.0,350.0,-910.0,-630.0,1013.3341008769023,1160.81867662439
442237.359,0.00489100000000326,155.0,-986.0,-176.0,420.0,-840.0,-630.0,1013.5072767375674,1130.884609498246
442237.359,0.00489100000000326,155.0,-987.0,-175.0,420.0,-770.0,-630.0,1014.3071526909391,1079.907403437906
442237.359,0.00489100000000326,156.0,-986.0,-175.0,420.0,-700.0,-630.0,1013.4875430906884,1031.1643903859365
442237.359,0.00489100000000326,157.0,-986.0,-175.0,420.0,-700.0,-630.0,1013.6419486189391,1031.1643903859365
442237.359,0.00489100000000326,158.0,-986.0,-174.0,490.0,-770.0,-560.0,1013.6251772721512,1070.7940978544848
442237.359,0.00489100000000326,157.0,-986.0,-175.0,420.0,-770.0,-560.0,1013.6419486189391,1040.6248123122955
442237.359,0.00489100000000326,154.0,-987.0,-174.0,420.0,-770.0,-560.0,1013.9827414704848,1040.6248123122955
442237.359,0.00489100000000326,155.0,-986.0,-174.0,420.0,-840.0,-560.0,1013.1618824255086,1093.4349546269316
442237.359,0.00489100000000326,155.0,-986.0,-175.0,420.0,-770.0,-560.0,1013.3341008769023,1040.6248123122955
442237.359,0.00489100000000326,155.0,-987.0,-175.0,350.0,-700.0,-560.0,1014.3071526909391,962.3408959407265
442237.359,0.00489100000000326,155.0,-987.0,-174.0,420.0,-700.0,-560.0,1014.1350994813265,989.9494936611666
442237.359,0.00489100000000326,157.0,-987.0,-175.0,490.0,-700.0,-630.0,1014.6147051960168,1061.602562167217
442237.359,0.00489100000000326,156.0,-986.0,-175.0,490.0,-770.0,-630.0,1013.4875430906884,1109.00856624284
442237.359,0.00489100000000326,157.0,-986.0,-175.0,350.0,-770.0,-560.0,1013.6419486189391,1014.3963722332606
442237.546,0.005077999999979511,155.0,-986.0,-174.0,420.0,-700.0,-560.0,1013.1618824255086,989.9494936611666
442237.546,0.005077999999979511,156.0,-986.0,-175.0,420.0,-770.0,-560.0,1013.4875430906884,1040.6248123122955
442237.546,0.005077999999979511,156.0,-986.0,-174.0,420.0,-770.0,-630.0,1013.3153507176332,1079.907403437906
442237.546,0.005077999999979511,156.0,-986.0,-175.0,420.0,-700.0,-630.0,1013.4875430906884,1031.1643903859365
442237.546,0.005077999999979511,156.0,-987.0,-176.0,420.0,-770.0,-560.0,1014.6334313435567,1040.6248123122955
442237.546,0.005077999999979511,157.0,-986.0,-175.0,490.0,-770.0,-560.0,1013.6419486189391,1070.7940978544848
442237.546,0.005077999999979511,156.0,-986.0,-174.0,420.0,-700.0,-630.0,1013.3153507176332,1031.1643903859365
442237.546,0.005077999999979511,156.0,-986.0,-175.0,420.0,-770.0,-560.0,1013.4875430906884,1040.6248123122955
442237.546,0.005077999999979511,154.0,-986.0,-174.0,420.0,-700.0,-560.0,1013.0093780414868,989.9494936611666
442237.546,0.005077999999979511,154.0,-987.0,-174.0,490.0,-770.0,-560.0,1013.9827414704848,1070.7940978544848
442237.546,0.005077999999979511,155.0,-987.0,-175.0,350.0,-840.0,-630.0,1014.3071526909391,1106.7971810589327
442237.546,0.005077999999979511,157.0,-986.0,-176.0,350.0,-770.0,-630.0,1013.8150718942779,1054.6563421323553
442237.546,0.005077999999979511,156.0,-986.0,-176.0,350.0,-700.0,-560.0,1013.660692736973,962.3408959407265
442237.546,0.005077999999979511,156.0,-987.0,-175.0,420.0,-770.0,-560.0,1014.4604477257849,1040.6248123122955
442237.546,0.005077999999979511,154.0,-986.0,-174.0,420.0,-700.0,-560.0,1013.0093780414868,989.9494936611666
442237.546,0.005077999999979511,155.0,-987.0,-176.0,420.0,-700.0,-560.0,1014.4801624477435,989.9494936611666
442237.546,0.005077999999979511,154.0,-987.0,-174.0,490.0,-700.0,-700.0,1013.9827414704848,1104.581368664165
442237.546,0.005077999999979511,157.0,-986.0,-175.0,420.0,-770.0,-630.0,1013.6419486189391,1079.907403437906
442237.546,0.005077999999979511,156.0,-986.0,-175.0,420.0,-840.0,-630.0,1013.4875430906884,1130.884609498246
442237.546,0.005077999999979511,156.0,-986.0,-175.0,420.0,-840.0,-630.0,1013.4875430906884,1130.884609498246
442237.734,0.005266000000003259,155.0,-987.0,-174.0,420.0,-840.0,-560.0,1014.1350994813265,1093.4349546269316
442237.734,0.005266000000003259,155.0,-987.0,-173.0,420.0,-840.0,-560.0,1013.9640033058373,1093.4349546269316
442237.734,0.005266000000003259,155.0,-987.0,-175.0,420.0,-840.0,-560.0,1014.3071526909391,1093.4349546269316
442237.734,0.005266000000003259,155.0,-986.0,-176.0,350.0,-770.0,-560.0,1013.5072767375674,1014.3963722332606
442237.734,0.005266000000003259,156.0,-986.0,-175.0,420.0,-700.0,-560.0,1013.4875430906884,989.9494936611666
442237.734,0.005266000000003259,156.0,-986.0,-175.0,420.0,-770.0,-560.0,1013.4875430906884,1040.6248123122955
442237.734,0.005266000000003259,156.0,-985.0,-175.0,420.0,-770.0,-560.0,1012.5146912514406,1040.6248123122955
442237.734,0.005266000000003259,156.0,-986.0,-175.0,420.0,-770.0,-560.0,1013.4875430906884,1040.6248123122955
442237.734,0.005266000000003259,155.0,-986.0,-174.0,420.0,-840.0,-560.0,1013.1618824255086,1093.4349546269316
442237.734,0.005266000000003259,154.0,-986.0,-174.0,420.0,-840.0,-560.0,1013.0093780414868,1093.4349546269316
442237.734,0.005266000000003259,154.0,-987.0,-175.0,420.0,-770.0,-630.0,1014.1548205279113,1079.907403437906
442237.734,0.005266000000003259,155.0,-986.0,-175.0,490.0,-700.0,-700.0,1013.3341008769023,1104.581368664165
442237.734,0.005266000000003259,157.0,-986.0,-174.0,350.0,-770.0,-630.0,1013.4697824799712,1054.6563421323553
442237.734,0.005266000000003259,157.0,-986.0,-175.0,350.0,-700.0,-630.0,1013.6419486189391,1004.6890066085126
442237.734,0.005266000000003259,157.0,-986.0,-175.0,350.0,-700.0,-560.0,1013.6419486189391,962.3408959407265
442237.734,0.005266000000003259,155.0,-986.0,-175.0,420.0,-700.0,-490.0,1013.3341008769023,952.102935611481
442237.734,0.005266000000003259,155.0,-986.0,-175.0,490.0,-840.0,-560.0,1013.3341008769023,1122.1853679316978
442237.734,0.005266000000003259,155.0,-987.0,-175.0,490.0,-840.0,-630.0,1014.3071526909391,1158.7061750072794
442237.734,0.005266000000003259,155.0,-987.0,-174.0,350.0,-840.0,-630.0,1014.1350994813265,1106.7971810589327
442237.734,0.005266000000003259,155.0,-986.0,-174.0,350.0,-700.0,-630.0,1013.1618824255086,1004.6890066085126
442237.906,0.0054380000000237485,157.0,-986.0,-175.0,350.0,-700.0,-630.0,1013.6419486189391,1004.6890066085126
442237.906,0.0054380000000237485,157.0,-985.0,-175.0,350.0,-700.0,-630.0,1012.6692451141192,1004.6890066085126
442237.906,0.0054380000000237485,157.0,-986.0,-175.0,420.0,-770.0,-560.0,1013.6419486189391,1040.6248123122955
442237.906,0.0054380000000237485,155.0,-986.0,-175.0,490.0,-770.0,-560.0,1013.3341008769023,1070.7940978544848
442237.906,0.0054380000000237485,154.0,-986.0,-176.0,490.0,-770.0,-560.0,1013.3548243335106,1070.7940978544848
442237.906,0.0054380000000237485,154.0,-987.0,-175.0,350.0,-770.0,-560.0,1014.1548205279113,1014.3963722332606
442237.906,0.0054380000000237485,155.0,-987.0,-175.0,350.0,-700.0,-630.0,1014.3071526909391,1004.6890066085126
442237.906,0.0054380000000237485,157.0,-987.0,-175.0,350.0,-770.0,-630.0,1014.6147051960168,1054.6563421323553
442237.906,0.0054380000000237485,157.0,-987.0,-174.0,420.0,-770.0,-630.0,1014.4427041484403,1079.907403437906
442237.906,0.0054380000000237485,158.0,-986.0,-176.0,420.0,-700.0,-630.0,1013.9704137695537,1031.1643903859365
442237.906,0.0054380000000237485,156.0,-985.0,-174.0,420.0,-770.0,-560.0,1012.3423334030836,1040.6248123122955
442237.906,0.0054380000000237485,155.0,-985.0,-175.0,490.0,-910.0,-490.0,1012.3611015838172,1143.8094246857734
442237.906,0.0054380000000237485,153.0,-986.0,-175.0,490.0,-770.0,-490.0,1013.030108140918,1035.905401086412
442237.906,0.0054380000000237485,153.0,-986.0,-174.0,420.0,-700.0,-560.0,1012.8578380009704,989.9494936611666
442237.906,0.0054380000000237485,156.0,-987.0,-174.0,420.0,-700.0,-560.0,1014.2884205195286,989.9494936611666
442237.906,0.0054380000000237485,157.0,-987.0,-175.0,350.0,-700.0,-630.0,1014.6147051960168,1004.6890066085126
442237.906,0.0054380000000237485,158.0,-986.0,-175.0,420.0,-770.0,-630.0,1013.7973170215041,1079.907403437906
442237.906,0.0054380000000237485,156.0,-986.0,-176.0,490.0,-840.0,-560.0,1013.660692736973,1122.1853679316978
442237.906,0.0054380000000237485,155.0,-986.0,-175.0,490.0,-840.0,-490.0,1013.3341008769023,1088.9444430272831
442237.906,0.0054380000000237485,155.0,-986.0,-175.0,420.0,-910.0,-560.0,1013.3341008769023,1148.0853626799708
442238.078,0.00560999999998603,154.0,-986.0,-174.0,420.0,-840.0,-560.0,1013.0093780414868,1093.4349546269316
442238.078,0.00560999999998603,156.0,-986.0,-175.0,490.0,-770.0,-560.0,1013.4875430906884,1070.7940978544848
442238.078,0.00560999999998603,157.0,-987.0,-175.0,420.0,-700.0,-630.0,1014.6147051960168,1031.1643903859365
442238.078,0.00560999999998603,158.0,-987.0,-175.0,420.0,-700.0,-630.0,1014.7699246627286,1031.1643903859365
442238.078,0.00560999999998603,158.0,-986.0,-175.0,420.0,-770.0,-560.0,1013.7973170215041,1040.6248123122955
442238.078,0.00560999999998603,158.0,-986.0,-175.0,420.0,-840.0,-490.0,1013.7973170215041,1059.292216529509
442238.078,0.00560999999998603,155.0,-986.0,-174.0,350.0,-770.0,-560.0,1013.1618824255086,1014.3963722332606
442238.078,0.00560999999998603,153.0,-986.0,-175.0,420.0,-840.0,-490.0,1013.030108140918,1059.292216529509
442238.078,0.00560999999998603,154.0,-986.0,-174.0,420.0,-770.0,-630.0,1013.0093780414868,1079.907403437906
442238.078,0.00560999999998603,156.0,-987.0,-174.0,420.0,-700.0,-630.0,1014.2884205195286,1031.1643903859365
442238.078,0.00560999999998603,157.0,-987.0,-175.0,490.0,-770.0,-630.0,1014.6147051960168,1109.00856624284
442238.078,0.00560999999998603,158.0,-986.0,-175.0,350.0,-840.0,-560.0,1013.7973170215041,1068.5036265731624
442238.078,0.00560999999998603,156.0,-986.0,-175.0,350.0,-840.0,-560.0,1013.4875430906884,1068.5036265731624
442238.078,0.00560999999998603,156.0,-986.0,-175.0,420.0,-840.0,-490.0,1013.4875430906884,1059.292216529509
442238.078,0.00560999999998603,155.0,-986.0,-175.0,490.0,-770.0,-490.0,1013.3341008769023,1035.905401086412
442238.078,0.00560999999998603,154.0,-986.0,-175.0,420.0,-770.0,-560.0,1013.1816224152509,1040.6248123122955
442238.078,0.00560999999998603,154.0,-985.0,-176.0,350.0,-770.0,-700.0,1012.3818449577215,1097.9070998950685
442238.078,0.00560999999998603,156.0,-987.0,-175.0,350.0,-700.0,-700.0,1014.4604477257849,1050.0
442238.078,0.00560999999998603,157.0,-985.0,-175.0,420.0,-700.0,-700.0,1012.6692451141192,1075.3604047016051
442238.078,0.00560999999998603,158.0,-986.0,-175.0,490.0,-840.0,-630.0,1013.7973170215041,1158.7061750072794
442238.265,0.005797000000020489,156.0,-986.0,-175.0,420.0,-770.0,-560.0,1013.4875430906884,1040.6248123122955
442238.265,0.005797000000020489,156.0,-986.0,-175.0,420.0,-770.0,-560.0,1013.4875430906884,1040.6248123122955
442238.265,0.005797000000020489,154.0,-987.0,-175.0,420.0,-770.0,-560.0,1014.1548205279113,1040.6248123122955
442238.265,0.005797000000020489,155.0,-986.0,-175.0,350.0,-770.0,-560.0,1013.3341008769023,1014.3963722332606
442238.265,0.005797000000020489,155.0,-987.0,-175.0,350.0,-700.0,-630.0,1014.3071526909391,1004.6890066085126
442238.265,0.005797000000020489,156.0,-986.0,-175.0,350.0,-700.0,-560.0,1013.4875430906884,962.3408959407265
442238.265,0.005797000000020489,157.0,-986.0,-175.0,420.0,-770.0,-560.0,1013.6419486189391,1040.6248123122955
442238.265,0.005797000000020489,157.0,-986.0,-176.0,420.0,-770.0,-560.0,1013.8150718942779,1040.6248123122955
442238.265,0.005797000000020489,155.0,-986.0,-175.0,420.0,-770.0,-490.0,1013.3341008769023,1004.6890066085126
442238.265,0.005797000000020489,154.0,-987.0,-175.0,420.0,-840.0,-560.0,1014.1548205279113,1093.4349546269316
442238.265,0.005797000000020489,153.0,-986.0,-174.0,420.0,-840.0,-630.0,1012.8578380009704,1130.884609498246
442238.265,0.005797000000020489,154.0,-986.0,-174.0,420.0,-770.0,-630.0,1013.0093780414868,1079.907403437906
442238.265,0.005797000000020489,155.0,-987.0,-174.0,420.0,-700.0,-630.0,1014.1350994813265,1031.1643903859365
442238.265,0.005797000000020489,157.0,-986.0,-175.0,420.0,-700.0,-560.0,1013.6419486189391,989.9494936611666
442238.265,0.005797000000020489,158.0,-986.0,-175.0,420.0,-700.0,-560.0,1013.7973170215041,989.9494936611666
442238.265,0.005797000000020489,156.0,-986.0,-176.0,420.0,-840.0,-490.0,1013.660692736973,1059.292216529509
442238.265,0.005797000000020489,156.0,-986.0,-175.0,420.0,-840.0,-560.0,1013.4875430906884,1093.4349546269316
442238.265,0.005797000000020489,154.0,-987.0,-174.0,420.0,-770.0,-630.0,1013.9827414704848,1079.907403437906
442238.265,0.005797000000020489,155.0,-986.0,-175.0,350.0,-700.0,-630.0,1013.3341008769023,1004.6890066085126
442238.265,0.005797000000020489,155.0,-986.0,-176.0,350.0,-700.0,-560.0,1013.5072767375674,962.3408959407265
442238.453,0.00598499999998603,157.0,-987.0,-175.0,350.0,-700.0,-700.0,1014.6147051960168,1050.0
442238.453,0.00598499999998603,157.0,-986.0,-175.0,420.0,-700.0,-700.0,1013.6419486189391,1075.3604047016051
442238.453,0.00598499999998603,157.0,-985.0,-175.0,420.0,-770.0,-560.0,1012.6692451141192,1040.6248123122955
442238.453,0.00598499999998603,157.0,-986.0,-175.0,420.0,-770.0,-490.0,1013.6419486189391,1004.6890066085126
442238.453,0.00598499999998603,155.0,-986.0,-175.0,420.0,-770.0,-490.0,1013.3341008769023,1004.6890066085126
442238.453,0.00598499999998603,154.0,-987.0,-175.0,350.0,-770.0,-490.0,1014.1548205279113,977.4968030638258
442238.453,0.00598499999998603,155.0,-987.0,-174.0,350.0,-770.0,-560.0,1014.1350994813265,1014.3963722332606
442238.453,0.00598499999998603,156.0,-986.0,-175.0,420.0,-770.0,-630.0,1013.4875430906884,1079.907403437906
442238.453,0.00598499999998603,157.0,-987.0,-175.0,350.0,-770.0,-560.0,1014.6147051960168,1014.3963722332606
442238.453,0.00598499999998603,157.0,-986.0,-175.0,420.0,-770.0,-630.0,1013.6419486189391,1079.907403437906
442238.453,0.00598499999998603,156.0,-986.0,-175.0,490.0,-770.0,-560.0,1013.4875430906884,1070.7940978544848
442238.453,0.00598499999998603,155.0,-986.0,-175.0,420.0,-840.0,-560.0,1013.3341008769023,1093.4349546269316
442238.453,0.00598499999998603,155.0,-986.0,-175.0,490.0,-770.0,-560.0,1013.3341008769023,1070.7940978544848
442238.453,0.00598499999998603,154.0,-987.0,-175.0,420.0,-630.0,-630.0,1014.1548205279113,984.9873095629202
442238.453,0.00598499999998603,155.0,-986.0,-175.0,420.0,-700.0,-630.0,1013.3341008769023,1031.1643903859365
442238.453,0.00598499999998603,156.0,-986.0,-174.0,420.0,-770.0,-630.0,1013.3153507176332,1079.907403437906
442238.453,0.00598499999998603,157.0,-987.0,-175.0,420.0,-770.0,-630.0,1014.6147051960168,1079.907403437906
442238.453,0.00598499999998603,157.0,-986.0,-175.0,420.0,-840.0,-560.0,1013.6419486189391,1093.4349546269316
442238.453,0.00598499999998603,156.0,-986.0,-175.0,350.0,-840.0,-560.0,1013.4875430906884,1068.5036265731624
442238.453,0.00598499999998603,154.0,-986.0,-175.0,420.0,-770.0,-560.0,1013.1816224152509,1040.6248123122955
442238.64,0.006172000000020489,155.0,-986.0,-175.0,420.0,-700.0,-560.0,1013.3341008769023,989.9494936611666
442238.64,0.006172000000020489,154.0,-986.0,-176.0,420.0,-770.0,-630.0,1013.3548243335106,1079.907403437906
442238.64,0.006172000000020489,156.0,-986.0,-175.0,490.0,-700.0,-630.0,1013.4875430906884,1061.602562167217
442238.64,0.006172000000020489,156.0,-986.0,-174.0,420.0,-700.0,-630.0,1013.3153507176332,1031.1643903859365
442238.64,0.006172000000020489,157.0,-986.0,-174.0,420.0,-770.0,-630.0,1013.4697824799712,1079.907403437906
442238.64,0.006172000000020489,157.0,-986.0,-176.0,490.0,-840.0,-560.0,1013.8150718942779,1122.1853679316978
442238.64,0.006172000000020489,156.0,-987.0,-175.0,490.0,-840.0,-560.0,1014.4604477257849,1122.1853679316978
442238.64,0.006172000000020489,155.0,-986.0,-176.0,490.0,-770.0,-490.0,1013.5072767375674,1035.905401086412
442238.64,0.006172000000020489,155.0,-987.0,-175.0,420.0,-770.0,-560.0,1014.3071526909391,1040.6248123122955
442238.64,0.006172000000020489,156.0,-986.0,-176.0,350.0,-770.0,-630.0,1013.660692736973,1054.6563421323553
442238.64,0.006172000000020489,156.0,-987.0,-175.0,420.0,-770.0,-630.0,1014.4604477257849,1079.907403437906
442238.64,0.006172000000020489,157.0,-986.0,-175.0,420.0,-700.0,-630.0,1013.6419486189391,1031.1643903859365
442238.64,0.006172000000020489,157.0,-986.0,-175.0,490.0,-840.0,-560.0,1013.6419486189391,1122.1853679316978
442238.64,0.006172000000020489,156.0,-986.0,-175.0,420.0,-700.0,-560.0,1013.4875430906884,989.9494936611666
442238.64,0.006172000000020489,155.0,-986.0,-175.0,420.0,-700.0,-560.0,1013.3341008769023,989.9494936611666
442238.64,0.006172000000020489,155.0,-987.0,-175.0,350.0,-770.0,-700.0,1014.3071526909391,1097.9070998950685
442238.64,0.006172000000020489,157.0,-987.0,-175.0,350.0,-770.0,-630.0,1014.6147051960168,1054.6563421323553
442238.64,0.006172000000020489,157.0,-986.0,-175.0,420.0,-700.0,-630.0,1013.6419486189391,1031.1643903859365
442238.64,0.006172000000020489,157.0,-986.0,-175.0,420.0,-770.0,-630.0,1013.6419486189391,1079.907403437906
442238.64,0.006172000000020489,156.0,-986.0,-176.0,420.0,-770.0,-560.0,1013.660692736973,1040.6248123122955
442238.812,0.0063439999999827705,155.0,-986.0,-175.0,420.0,-840.0,-490.0,1013.3341008769023,1059.292216529509
442238.812,0.0063439999999827705,155.0,-987.0,-175.0,490.0,-840.0,-490.0,1014.3071526909391,1088.9444430272831
442238.812,0.0063439999999827705,155.0,-986.0,-175.0,420.0,-770.0,-560.0,1013.3341008769023,1040.6248123122955
442238.812,0.0063439999999827705,156.0,-986.0,-175.0,350.0,-770.0,-630.0,1013.4875430906884,1054.6563421323553
442238.812,0.0063439999999827705,157.0,-987.0,-175.0,420.0,-700.0,-630.0,1014.6147051960168,1031.1643903859365
442238.812,0.0063439999999827705,156.0,-986.0,-175.0,420.0,-770.0,-560.0,1013.4875430906884,1040.6248123122955
442238.812,0.0063439999999827705,155.0,-986.0,-175.0,350.0,-770.0,-560.0,1013.3341008769023,1014.3963722332606
442238.812,0.0063439999999827705,155.0,-987.0,-175.0,350.0,-770.0,-560.0,1014.3071526909391,1014.3963722332606
442238.812,0.0063439999999827705,155.0,-986.0,-175.0,350.0,-770.0,-630.0,1013.3341008769023,1054.6563421323553
442238.812,0.0063439999999827705,155.0,-986.0,-176.0,420.0,-770.0,-560.0,1013.5072767375674,1040.6248123122955
442238.812,0.0063439999999827705,156.0,-987.0,-176.0,420.0,-840.0,-700.0,1014.6334313435567,1171.3240371477057
442238.812,0.0063439999999827705,157.0,-986.0,-175.0,420.0,-700.0,-560.0,1013.6419486189391,989.9494936611666
442238.812,0.0063439999999827705,158.0,-986.0,-175.0,420.0,-770.0,-560.0,1013.7973170215041,1040.6248123122955
442238.812,0.0063439999999827705,156.0,-986.0,-175.0,420.0,-840.0,-560.0,1013.4875430906884,1093.4349546269316
442238.812,0.0063439999999827705,156.0,-987.0,-175.0,420.0,-840.0,-560.0,1014.4604477257849,1093.4349546269316
442238.812,0.0063439999999827705,155.0,-987.0,-175.0,490.0,-840.0,-560.0,1014.3071526909391,1122.1853679316978
442238.812,0.0063439999999827705,154.0,-986.0,-175.0,350.0,-700.0,-630.0,1013.1816224152509,1004.6890066085126
442238.812,0.0063439999999827705,155.0,-987.0,-175.0,420.0,-700.0,-700.0,1014.3071526909391,1075.3604047016051
442238.812,0.0063439999999827705,157.0,-986.0,-176.0,350.0,-700.0,-630.0,1013.8150718942779,1004.6890066085126
442238.812,0.0063439999999827705,157.0,-985.0,-176.0,350.0,-770.0,-630.0,1012.8425346518579,1054.6563421323553
442239.0,0.00653200000000652,157.0,-986.0,-176.0,420.0,-770.0,-560.0,1013.8150718942779,1040.6248123122955
442239.0,0.00653200000000652,155.0,-986.0,-177.0,350.0,-840.0,-560.0,1013.6814095168165,1068.5036265731624
442239.0,0.00653200000000652,154.0,-986.0,-176.0,420.0,-770.0,-560.0,1013.3548243335106,1040.6248123122955
442239.0,0.00653200000000652,154.0,-987.0,-175.0,350.0,-770.0,-560.0,1014.1548205279113,1014.3963722332606
442239.0,0.00653200000000652,155.0,-986.0,-175.0,350.0,-700.0,-630.0,1013.3341008769023,1004.6890066085126
442239.0,0.00653200000000652,156.0,-986.0,-175.0,350.0,-700.0,-630.0,1013.4875430906884,1004.6890066085126
442239.0,0.00653200000000652,157.0,-986.0,-176.0,350.0,-700.0,-630.0,1013.8150718942779,1004.6890066085126
442239.0,0.00653200000000652,158.0,-985.0,-176.0,350.0,-770.0,-560.0,1012.9980256644136,1014.3963722332606
442239.0,0.00653200000000652,155.0,-987.0,-175.0,420.0,-840.0,-490.0,1014.3071526909391,1059.292216529509
442239.0,0.00653200000000652,154.0,-986.0,-176.0,420.0,-840.0,-560.0,1013.3548243335106,1093.4349546269316
442239.0,0.00653200000000652,153.0,-987.0,-175.0,420.0,-840.0,-560.0,1014.0034516706538,1093.4349546269316
442239.0,0.00653200000000652,155.0,-986.0,-176.0,420.0,-770.0,-700.0,1013.5072767375674,1122.1853679316978
442239.0,0.00653200000000652,156.0,-986.0,-176.0,420.0,-770.0,-700.0,1013.660692736973,1122.1853679316978
442239.0,0.00653200000000652,158.0,-986.0,-176.0,490.0,-770.0,-630.0,1013.9704137695537,1109.00856624284
442239.0,0.00653200000000652,158.0,-986.0,-175.0,490.0,-770.0,-560.0,1013.7973170215041,1070.7940978544848
442239.0,0.00653200000000652,156.0,-986.0,-175.0,420.0,-770.0,-560.0,1013.4875430906884,1040.6248123122955
442239.0,0.00653200000000652,155.0,-986.0,-176.0,490.0,-840.0,-490.0,1013.5072767375674,1088.9444430272831
442239.0,0.00653200000000652,153.0,-986.0,-176.0,420.0,-840.0,-560.0,1013.2033359597667,1093.4349546269316
442239.0,0.00653200000000652,155.0,-986.0,-176.0,420.0,-700.0,-630.0,1013.5072767375674,1031.1643903859365
442239.0,0.00653200000000652,156.0,-986.0,-176.0,420.0,-700.0,-700.0,1013.660692736973,1075.3604047016051
442239.187,0.006718999999982771,157.0,-986.0,-176.0,420.0,-770.0,-560.0,1013.8150718942779,1040.6248123122955
442239.187,0.006718999999982771,158.0,-987.0,-175.0,420.0,-770.0,-490.0,1014.7699246627286,1004.6890066085126
442239.187,0.006718999999982771,156.0,-986.0,-176.0,490.0,-840.0,-560.0,1013.660692736973,1122.1853679316978
442239.187,0.006718999999982771,156.0,-987.0,-175.0,490.0,-840.0,-560.0,1014.4604477257849,1122.1853679316978
442239.187,0.006718999999982771,154.0,-986.0,-176.0,490.0,-840.0,-560.0,1013.3548243335106,1122.1853679316978
442239.187,0.006718999999982771,155.0,-987.0,-175.0,420.0,-770.0,-630.0,1014.3071526909391,1079.907403437906
442239.187,0.006718999999982771,156.0,-987.0,-175.0,420.0,-770.0,-630.0,1014.4604477257849,1079.907403437906
442239.187,0.006718999999982771,156.0,-985.0,-176.0,420.0,-700.0,-630.0,1012.6880072361872,1031.1643903859365
442239.187,0.006718999999982771,157.0,-986.0,-176.0,420.0,-770.0,-630.0,1013.8150718942779,1079.907403437906
442239.187,0.006718999999982771,157.0,-986.0,-175.0,420.0,-770.0,-560.0,1013.6419486189391,1040.6248123122955
442239.187,0.006718999999982771,156.0,-986.0,-175.0,420.0,-770.0,-560.0,1013.4875430906884,1040.6248123122955
442239.187,0.006718999999982771,155.0,-987.0,-175.0,420.0,-840.0,-560.0,1014.3071526909391,1093.4349546269316
442239.187,0.006718999999982771,154.0,-986.0,-176.0,420.0,-770.0,-560.0,1013.3548243335106,1040.6248123122955
442239.187,0.006718999999982771,155.0,-987.0,-176.0,420.0,-840.0,-560.0,1014.4801624477435,1093.4349546269316
442239.187,0.006718999999982771,156.0,-986.0,-176.0,420.0,-770.0,-630.0,1013.660692736973,1079.907403437906
442239.187,0.006718999999982771,157.0,-986.0,-176.0,490.0,-770.0,-630.0,1013.8150718942779,1109.00856624284
442239.187,0.006718999999982771,157.0,-986.0,-175.0,490.0,-770.0,-560.0,1013.6419486189391,1070.7940978544848
442239.187,0.006718999999982771,156.0,-986.0,-175.0,420.0,-770.0,-560.0,1013.4875430906884,1040.6248123122955
442239.187,0.006718999999982771,156.0,-986.0,-174.0,420.0,-840.0,-560.0,1013.3153507176332,1093.4349546269316
442239.187,0.006718999999982771,155.0,-986.0,-176.0,420.0,-840.0,-560.0,1013.5072767375674,1093.4349546269316
442239.375,0.006907000000006519,156.0,-986.0,-176.0,350.0,-770.0,-630.0,1013.660692736973,1054.6563421323553
442239.375,0.006907000000006519,155.0,-985.0,-175.0,350.0,-770.0,-700.0,1012.3611015838172,1097.9070998950685
442239.375,0.006907000000006519,156.0,-986.0,-176.0,420.0,-700.0,-630.0,1013.660692736973,1031.1643903859365
442239.375,0.006907000000006519,156.0,-985.0,-176.0,350.0,-770.0,-560.0,1012.6880072361872,1014.3963722332606
442239.375,0.006907000000006519,156.0,-987.0,-175.0,350.0,-770.0,-630.0,1014.4604477257849,1054.6563421323553
442239.375,0.006907000000006519,156.0,-986.0,-176.0,350.0,-770.0,-560.0,1013.660692736973,1014.3963722332606
442239.375,0.006907000000006519,156.0,-986.0,-176.0,420.0,-770.0,-560.0,1013.660692736973,1040.6248123122955
442239.375,0.006907000000006519,156.0,-986.0,-175.0,420.0,-770.0,-560.0,1013.4875430906884,1040.6248123122955
442239.375,0.006907000000006519,157.0,-986.0,-175.0,420.0,-770.0,-560.0,1013.6419486189391,1040.6248123122955
442239.375,0.006907000000006519,155.0,-986.0,-175.0,420.0,-770.0,-560.0,1013.3341008769023,1040.6248123122955
442239.375,0.006907000000006519,156.0,-987.0,-175.0,490.0,-770.0,-630.0,1014.4604477257849,1109.00856624284
442239.375,0.006907000000006519,156.0,-986.0,-175.0,420.0,-770.0,-630.0,1013.4875430906884,1079.907403437906
442239.375,0.006907000000006519,156.0,-986.0,-176.0,350.0,-700.0,-630.0,1013.660692736973,1004.6890066085126
442239.375,0.006907000000006519,157.0,-986.0,-175.0,420.0,-770.0,-490.0,1013.6419486189391,1004.6890066085126
442239.375,0.006907000000006519,156.0,-987.0,-175.0,490.0,-770.0,-560.0,1014.4604477257849,1070.7940978544848
442239.375,0.006907000000006519,155.0,-986.0,-175.0,350.0,-770.0,-560.0,1013.3341008769023,1014.3963722332606
442239.375,0.006907000000006519,154.0,-986.0,-174.0,350.0,-770.0,-630.0,1013.0093780414868,1054.6563421323553
442239.375,0.006907000000006519,156.0,-987.0,-176.0,490.0,-770.0,-630.0,1014.6334313435567,1109.00856624284
442239.375,0.006907000000006519,157.0,-987.0,-176.0,420.0,-770.0,-630.0,1014.7876625186177,1079.907403437906
442239.375,0.006907000000006519,157.0,-986.0,-175.0,420.0,-770.0,-630.0,1013.6419486189391,1079.907403437906
442239.531,0.007063000000023749,157.0,-986.0,-175.0,420.0,-700.0,-560.0,1013.6419486189391,989.9494936611666
442239.531,0.007063000000023749,156.0,-986.0,-175.0,350.0,-840.0,-560.0,1013.4875430906884,1068.5036265731624
442239.531,0.007063000000023749,155.0,-986.0,-175.0,420.0,-840.0,-490.0,1013.3341008769023,1059.292216529509
442239.531,0.007063000000023749,155.0,-987.0,-175.0,280.0,-700.0,-630.0,1014.3071526909391,982.496819333274
442239.531,0.007063000000023749,156.0,-987.0,-174.0,350.0,-770.0,-630.0,1014.2884205195286,1054.6563421323553
442239.531,0.007063000000023749,155.0,-986.0,-175.0,350.0,-770.0,-630.0,1013.3341008769023,1054.6563421323553
442239.531,0.007063000000023749,156.0,-986.0,-176.0,350.0,-770.0,-630.0,1013.660692736973,1054.6563421323553
442239.531,0.007063000000023749,157.0,-986.0,-175.0,350.0,-770.0,-630.0,1013.6419486189391,1054.6563421323553
442239.531,0.007063000000023749,157.0,-986.0,-175.0,420.0,-770.0,-630.0,1013.6419486189391,1079.907403437906
442239.531,0.007063000000023749,156.0,-986.0,-176.0,420.0,-770.0,-560.0,1013.660692736973,1040.6248123122955
442239.531,0.007063000000023749,154.0,-986.0,-175.0,490.0,-840.0,-560.0,1013.1816224152509,1122.1853679316978
442239.531,0.007063000000023749,154.0,-986.0,-175.0,420.0,-770.0,-630.0,1013.1816224152509,1079.907403437906
442239.531,0.007063000000023749,155.0,-987.0,-175.0,350.0,-700.0,-630.0,1014.3071526909391,1004.6890066085126
442239.531,0.007063000000023749,156.0,-986.0,-175.0,490.0,-770.0,-630.0,1013.4875430906884,1109.00856624284
442239.531,0.007063000000023749,157.0,-987.0,-175.0,420.0,-770.0,-630.0,1014.6147051960168,1079.907403437906
442239.531,0.007063000000023749,158.0,-987.0,-175.0,350.0,-770.0,-560.0,1014.7699246627286,1014.3963722332606
442239.531,0.007063000000023749,157.0,-986.0,-175.0,350.0,-770.0,-490.0,1013.6419486189391,977.4968030638258
442239.531,0.007063000000023749,156.0,-986.0,-176.0,420.0,-840.0,-560.0,1013.660692736973,1093.4349546269316
442239.531,0.007063000000023749,155.0,-986.0,-175.0,350.0,-770.0,-560.0,1013.3341008769023,1014.3963722332606
442239.531,0.007063000000023749,154.0,-987.0,-176.0,350.0,-840.0,-560.0,1014.3278562673905,1068.5036265731624
442239.718,0.00725,155.0,-986.0,-175.0,420.0,-700.0,-630.0,1013.3341008769023,1031.1643903859365
442239.718,0.00725,156.0,-987.0,-175.0,350.0,-770.0,-630.0,1014.4604477257849,1054.6563421323553
442239.718,0.00725,158.0,-986.0,-175.0,420.0,-770.0,-630.0,1013.7973170215041,1079.907403437906
442239.718,0.00725,157.0,-986.0,-176.0,420.0,-770.0,-560.0,1013.8150718942779,1040.6248123122955
442239.718,0.00725,157.0,-986.0,-176.0,420.0,-770.0,-560.0,1013.8150718942779,1040.6248123122955
442239.718,0.00725,155.0,-987.0,-175.0,420.0,-770.0,-560.0,1014.3071526909391,1040.6248123122955
442239.718,0.00725,154.0,-986.0,-175.0,490.0,-700.0,-560.0,1013.1816224152509,1021.6163663528497
442239.718,0.00725,154.0,-986.0,-175.0,420.0,-700.0,-560.0,1013.1816224152509,989.9494936611666
442239.718,0.00725,155.0,-986.0,-175.0,420.0,-700.0,-630.0,1013.3341008769023,1031.1643903859365
442239.718,0.00725,157.0,-987.0,-175.0,420.0,-770.0,-630.0,1014.6147051960168,1079.907403437906
442239.718,0.00725,157.0,-987.0,-176.0,420.0,-840.0,-630.0,1014.7876625186177,1130.884609498246
442239.718,0.00725,158.0,-986.0,-175.0,420.0,-840.0,-560.0,1013.7973170215041,1093.4349546269316
442239.718,0.00725,156.0,-986.0,-175.0,490.0,-770.0,-560.0,1013.4875430906884,1070.7940978544848
442239.718,0.00725,154.0,-986.0,-175.0,490.0,-840.0,-490.0,1013.1816224152509,1088.9444430272831
442239.718,0.00725,154.0,-986.0,-175.0,420.0,-770.0,-630.0,1013.1816224152509,1079.907403437906
442239.718,0.00725,154.0,-986.0,-175.0,420.0,-700.0,-630.0,1013.1816224152509,1031.1643903859365
442239.718,0.00725,157.0,-986.0,-175.0,490.0,-630.0,-700.0,1013.6419486189391,1061.602562167217
442239.718,0.00725,157.0,-986.0,-175.0,350.0,-700.0,-630.0,1013.6419486189391,1004.6890066085126
442239.718,0.00725,158.0,-987.0,-175.0,350.0,-770.0,-630.0,1014.7699246627286,1054.6563421323553
442239.718,0.00725,157.0,-987.0,-175.0,350.0,-840.0,-560.0,1014.6147051960168,1068.5036265731624
442239.906,0.0074380000000237485,156.0,-986.0,-175.0,420.0,-840.0,-560.0,1013.4875430906884,1093.4349546269316
442239.906,0.0074380000000237485,154.0,-986.0,-175.0,350.0,-770.0,-560.0,1013.1816224152509,1014.3963722332606
442239.906,0.0074380000000237485,154.0,-986.0,-175.0,420.0,-770.0,-560.0,1013.1816224152509,1040.6248123122955
442239.906,0.0074380000000237485,155.0,-986.0,-175.0,420.0,-770.0,-630.0,1013.3341008769023,1079.907403437906
442239.906,0.0074380000000237485,156.0,-987.0,-176.0,350.0,-700.0,-630.0,1014.6334313435567,1004.6890066085126
442239.906,0.0074380000000237485,157.0,-986.0,-176.0,420.0,-840.0,-630.0,1013.8150718942779,1130.884609498246
442239.906,0.0074380000000237485,157.0,-986.0,-175.0,420.0,-770.0,-630.0,1013.6419486189391,1079.907403437906
442239.906,0.0074380000000237485,157.0,-986.0,-175.0,420.0,-840.0,-560.0,1013.6419486189391,1093.4349546269316
442239.906,0.0074380000000237485,155.0,-986.0,-175.0,350.0,-840.0,-490.0,1013.3341008769023,1033.537614216338
442239.906,0.0074380000000237485,154.0,-986.0,-175.0,280.0,-840.0,-560.0,1013.1816224152509,1047.6640682967036
442239.906,0.0074380000000237485,154.0,-987.0,-175.0,350.0,-700.0,-560.0,1014.1548205279113,962.3408959407265
442239.906,0.0074380000000237485,155.0,-986.0,-175.0,420.0,-700.0,-630.0,1013.3341008769023,1031.1643903859365
442239.906,0.0074380000000237485,156.0,-987.0,-175.0,350.0,-700.0,-700.0,1014.4604477257849,1050.0
442239.906,0.0074380000000237485,158.0,-986.0,-175.0,420.0,-700.0,-630.0,1013.7973170215041,1031.1643903859365
442239.906,0.0074380000000237485,158.0,-986.0,-175.0,350.0,-700.0,-560.0,1013.7973170215041,962.3408959407265
442239.906,0.0074380000000237485,156.0,-986.0,-175.0,350.0,-840.0,-490.0,1013.4875430906884,1033.537614216338
442239.906,0.0074380000000237485,155.0,-986.0,-175.0,420.0,-840.0,-560.0,1013.3341008769023,1093.4349546269316
442239.906,0.0074380000000237485,154.0,-986.0,-174.0,420.0,-770.0,-630.0,1013.0093780414868,1079.907403437906
442239.906,0.0074380000000237485,155.0,-986.0,-174.0,420.0,-700.0,-630.0,1013.1618824255086,1031.1643903859365
442239.906,0.0074380000000237485,156.0,-986.0,-175.0,420.0,-700.0,-700.0,1013.4875430906884,1075.3604047016051
442240.093,0.007625,157.0,-986.0,-175.0,490.0,-770.0,-630.0,1013.6419486189391,1109.00856624284
442240.093,0.007625,157.0,-987.0,-175.0,490.0,-770.0,-630.0,1014.6147051960168,1109.00856624284
442240.093,0.007625,157.0,-986.0,-174.0,420.0,-840.0,-560.0,1013.4697824799712,1093.4349546269316
442240.093,0.007625,155.0,-986.0,-176.0,420.0,-840.0,-560.0,1013.5072767375674,1093.4349546269316
442240.093,0.007625,154.0,-986.0,-174.0,420.0,-840.0,-490.0,1013.0093780414868,1059.292216529509
442240.093,0.007625,153.0,-987.0,-175.0,350.0,-770.0,-630.0,1014.0034516706538,1054.6563421323553
442240.093,0.007625,154.0,-986.0,-175.0,420.0,-700.0,-560.0,1013.1816224152509,989.9494936611666
442240.093,0.007625,157.0,-986.0,-175.0,420.0,-770.0,-630.0,1013.6419486189391,1079.907403437906
442240.093,0.007625,157.0,-986.0,-175.0,420.0,-700.0,-700.0,1013.6419486189391,1075.3604047016051
442240.093,0.007625,157.0,-986.0,-176.0,420.0,-770.0,-560.0,1013.8150718942779,1040.6248123122955
442240.093,0.007625,155.0,-987.0,-175.0,420.0,-840.0,-560.0,1014.3071526909391,1093.4349546269316
442240.093,0.007625,155.0,-986.0,-175.0,420.0,-840.0,-560.0,1013.3341008769023,1093.4349546269316
442240.093,0.007625,154.0,-986.0,-175.0,350.0,-770.0,-630.0,1013.1816224152509,1054.6563421323553
442240.093,0.007625,155.0,-986.0,-174.0,350.0,-770.0,-630.0,1013.1618824255086,1054.6563421323553
442240.093,0.007625,156.0,-986.0,-175.0,420.0,-770.0,-630.0,1013.4875430906884,1079.907403437906
442240.093,0.007625,156.0,-987.0,-175.0,350.0,-840.0,-560.0,1014.4604477257849,1068.5036265731624
442240.093,0.007625,157.0,-986.0,-175.0,420.0,-770.0,-560.0,1013.6419486189391,1040.6248123122955
442240.093,0.007625,157.0,-986.0,-174.0,350.0,-770.0,-630.0,1013.4697824799712,1054.6563421323553
442240.093,0.007625,156.0,-986.0,-175.0,420.0,-770.0,-560.0,1013.4875430906884,1040.6248123122955
442240.093,0.007625,155.0,-987.0,-175.0,420.0,-770.0,-560.0,1014.3071526909391,1040.6248123122955
442240.265,0.007797000000020489,154.0,-986.0,-175.0,420.0,-840.0,-560.0,1013.1816224152509,1093.4349546269316
442240.265,0.007797000000020489,155.0,-986.0,-174.0,420.0,-770.0,-630.0,1013.1618824255086,1079.907403437906
442240.265,0.007797000000020489,156.0,-986.0,-175.0,420.0,-700.0,-630.0,1013.4875430906884,1031.1643903859365
442240.265,0.007797000000020489,157.0,-985.0,-175.0,420.0,-700.0,-560.0,1012.6692451141192,989.9494936611666
442240.265,0.007797000000020489,156.0,-986.0,-175.0,350.0,-700.0,-630.0,1013.4875430906884,1004.6890066085126
442240.265,0.007797000000020489,156.0,-986.0,-174.0,350.0,-840.0,-560.0,1013.3153507176332,1068.5036265731624
442240.265,0.007797000000020489,155.0,-986.0,-175.0,350.0,-840.0,-560.0,1013.3341008769023,1068.5036265731624
442240.265,0.007797000000020489,155.0,-986.0,-174.0,490.0,-840.0,-630.0,1013.1618824255086,1158.7061750072794
442240.265,0.007797000000020489,154.0,-987.0,-175.0,350.0,-770.0,-560.0,1014.1548205279113,1014.3963722332606
442240.265,0.007797000000020489,156.0,-986.0,-175.0,350.0,-770.0,-630.0,1013.4875430906884,1054.6563421323553
442240.265,0.007797000000020489,156.0,-986.0,-175.0,420.0,-770.0,-630.0,1013.4875430906884,1079.907403437906
442240.265,0.007797000000020489,156.0,-986.0,-176.0,350.0,-770.0,-630.0,1013.660692736973,1054.6563421323553
442240.265,0.007797000000020489,157.0,-986.0,-175.0,490.0,-770.0,-560.0,1013.6419486189391,1070.7940978544848
442240.265,0.007797000000020489,156.0,-986.0,-175.0,420.0,-770.0,-630.0,1013.4875430906884,1079.907403437906
442240.265,0.007797000000020489,156.0,-986.0,-174.0,350.0,-770.0,-630.0,1013.3153507176332,1054.6563421323553
442240.265,0.007797000000020489,155.0,-986.0,-175.0,420.0,-840.0,-560.0,1013.3341008769023,1093.4349546269316
442240.265,0.007797000000020489,154.0,-987.0,-174.0,420.0,-770.0,-560.0,1013.9827414704848,1040.6248123122955
442240.265,0.007797000000020489,155.0,-986.0,-174.0,420.0,-700.0,-560.0,1013.1618824255086,989.9494936611666
442240.265,0.007797000000020489,155.0,-986.0,-175.0,420.0,-770.0,-630.0,1013.3341008769023,1079.907403437906
442240.265,0.007797000000020489,157.0,-986.0,-175.0,350.0,-700.0,-630.0,1013.6419486189391,1004.6890066085126
442240.453,0.00798499999998603,157.0,-986.0,-175.0,490.0,-770.0,-630.0,1013.6419486189391,1109.00856624284
442240.453,0.00798499999998603,156.0,-986.0,-176.0,490.0,-770.0,-630.0,1013.660692736973,1109.00856624284
442240.453,0.00798499999998603,155.0,-986.0,-175.0,490.0,-770.0,-560.0,1013.3341008769023,1070.7940978544848
442240.453,0.00798499999998603,154.0,-986.0,-176.0,490.0,-840.0,-560.0,1013.3548243335106,1122.1853679316978
442240.453,0.00798499999998603,155.0,-986.0,-175.0,490.0,-840.0,-630.0,1013.3341008769023,1158.7061750072794
442240.453,0.00798499999998603,156.0,-986.0,-175.0,420.0,-770.0,-630.0,1013.4875430906884,1079.907403437906
442240.453,0.00798499999998603,157.0,-985.0,-174.0,420.0,-770.0,-560.0,1012.4969135755427,1040.6248123122955
442240.453,0.00798499999998603,157.0,-986.0,-175.0,420.0,-770.0,-560.0,1013.6419486189391,1040.6248123122955
442240.453,0.00798499999998603,157.0,-987.0,-175.0,420.0,-770.0,-560.0,1014.6147051960168,1040.6248123122955
442240.453,0.00798499999998603,157.0,-986.0,-175.0,420.0,-770.0,-490.0,1013.6419486189391,1004.6890066085126
442240.453,0.00798499999998603,155.0,-986.0,-175.0,420.0,-770.0,-490.0,1013.3341008769023,1004.6890066085126
442240.453,0.00798499999998603,154.0,-986.0,-174.0,420.0,-840.0,-560.0,1013.0093780414868,1093.4349546269316
442240.453,0.00798499999998603,155.0,-986.0,-176.0,420.0,-770.0,-630.0,1013.5072767375674,1079.907403437906
442240.453,0.00798499999998603,156.0,-986.0,-175.0,490.0,-770.0,-630.0,1013.4875430906884,1109.00856624284
442240.453,0.00798499999998603,156.0,-986.0,-175.0,420.0,-770.0,-560.0,1013.4875430906884,1040.6248123122955
442240.453,0.00798499999998603,156.0,-987.0,-175.0,420.0,-770.0,-560.0,1014.4604477257849,1040.6248123122955
442240.453,0.00798499999998603,156.0,-986.0,-174.0,420.0,-770.0,-630.0,1013.3153507176332,1079.907403437906
442240.453,0.00798499999998603,156.0,-986.0,-175.0,490.0,-770.0,-630.0,1013.4875430906884,1109.00856624284
442240.453,0.00798499999998603,157.0,-986.0,-174.0,420.0,-770.0,-630.0,1013.4697824799712,1079.907403437906
442240.453,0.00798499999998603,155.0,-986.0,-175.0,420.0,-770.0,-560.0,1013.3341008769023,1040.6248123122955
442240.64,0.00817200000002049,156.0,-987.0,-175.0,350.0,-840.0,-630.0,1014.4604477257849,1106.7971810589327
442240.64,0.00817200000002049,156.0,-986.0,-174.0,420.0,-840.0,-560.0,1013.3153507176332,1093.4349546269316
442240.64,0.00817200000002049,156.0,-986.0,-175.0,420.0,-840.0,-560.0,1013.4875430906884,1093.4349546269316
442240.64,0.00817200000002049,155.0,-986.0,-175.0,350.0,-770.0,-560.0,1013.3341008769023,1014.3963722332606
442240.64,0.00817200000002049,156.0,-986.0,-175.0,350.0,-700.0,-630.0,1013.4875430906884,1004.6890066085126
442240.64,0.00817200000002049,157.0,-986.0,-175.0,420.0,-770.0,-560.0,1013.6419486189391,1040.6248123122955
442240.64,0.00817200000002049,156.0,-986.0,-175.0,420.0,-770.0,-490.0,1013.4875430906884,1004.6890066085126
442240.64,0.00817200000002049,156.0,-987.0,-175.0,420.0,-770.0,-560.0,1014.4604477257849,1040.6248123122955
442240.64,0.00817200000002049,155.0,-987.0,-175.0,420.0,-770.0,-560.0,1014.3071526909391,1040.6248123122955
442240.64,0.00817200000002049,155.0,-986.0,-175.0,350.0,-770.0,-630.0,1013.3341008769023,1054.6563421323553
442240.64,0.00817200000002049,156.0,-986.0,-175.0,420.0,-770.0,-630.0,1013.4875430906884,1079.907403437906
442240.64,0.00817200000002049,156.0,-986.0,-175.0,420.0,-770.0,-630.0,1013.4875430906884,1079.907403437906
442240.64,0.00817200000002049,156.0,-986.0,-174.0,420.0,-770.0,-630.0,1013.3153507176332,1079.907403437906
442240.64,0.00817200000002049,155.0,-987.0,-174.0,420.0,-770.0,-630.0,1014.1350994813265,1079.907403437906
442240.64,0.00817200000002049,156.0,-986.0,-175.0,420.0,-840.0,-630.0,1013.4875430906884,1130.884609498246
442240.64,0.00817200000002049,154.0,-985.0,-175.0,420.0,-840.0,-560.0,1012.2084765501621,1093.4349546269316
442240.64,0.00817200000002049,154.0,-985.0,-175.0,350.0,-770.0,-560.0,1012.2084765501621,1014.3963722332606
442240.64,0.00817200000002049,154.0,-986.0,-174.0,350.0,-770.0,-630.0,1013.0093780414868,1054.6563421323553
442240.64,0.00817200000002049,155.0,-987.0,-174.0,420.0,-770.0,-630.0,1014.1350994813265,1079.907403437906
442240.64,0.00817200000002049,156.0,-987.0,-175.0,490.0,-700.0,-630.0,1014.4604477257849,1061.602562167217
442240.812,0.00834399999998277,157.0,-986.0,-174.0,490.0,-770.0,-630.0,1013.4697824799712,1109.00856624284
442240.812,0.00834399999998277,156.0,-986.0,-175.0,420.0,-840.0,-560.0,1013.4875430906884,1093.4349546269316
442240.812,0.00834399999998277,156.0,-986.0,-174.0,350.0,-770.0,-630.0,1013.3153507176332,1054.6563421323553
442240.812,0.00834399999998277,155.0,-986.0,-174.0,420.0,-770.0,-630.0,1013.1618824255086,1079.907403437906
442240.812,0.00834399999998277,155.0,-986.0,-175.0,420.0,-770.0,-560.0,1013.3341008769023,1040.6248123122955
442240.812,0.00834399999998277,154.0,-987.0,-174.0,350.0,-770.0,-630.0,1013.9827414704848,1054.6563421323553
442240.812,0.00834399999998277,156.0,-987.0,-175.0,420.0,-700.0,-560.0,1014.4604477257849,989.9494936611666
442240.812,0.00834399999998277,156.0,-986.0,-174.0,420.0,-700.0,-630.0,1013.3153507176332,1031.1643903859365
442240.812,0.00834399999998277,157.0,-986.0,-175.0,420.0,-770.0,-630.0,1013.6419486189391,1079.907403437906
442240.812,0.00834399999998277,157.0,-986.0,-175.0,420.0,-770.0,-490.0,1013.6419486189391,1004.6890066085126
442240.812,0.00834399999998277,156.0,-987.0,-174.0,490.0,-770.0,-560.0,1014.2884205195286,1070.7940978544848
442240.812,0.00834399999998277,155.0,-985.0,-174.0,490.0,-700.0,-490.0,1012.1887175818549,984.9873095629202
442240.812,0.00834399999998277,155.0,-986.0,-174.0,420.0,-770.0,-490.0,1013.1618824255086,1004.6890066085126
442240.812,0.00834399999998277,155.0,-986.0,-174.0,420.0,-770.0,-630.0,1013.1618824255086,1079.907403437906
442240.812,0.00834399999998277,156.0,-986.0,-174.0,350.0,-700.0,-630.0,1013.3153507176332,1004.6890066085126
442240.812,0.00834399999998277,158.0,-986.0,-175.0,350.0,-700.0,-630.0,1013.7973170215041,1004.6890066085126
442240.812,0.00834399999998277,158.0,-986.0,-175.0,420.0,-770.0,-630.0,1013.7973170215041,1079.907403437906
442240.812,0.00834399999998277,157.0,-986.0,-174.0,420.0,-840.0,-560.0,1013.4697824799712,1093.4349546269316
442240.812,0.00834399999998277,155.0,-986.0,-175.0,350.0,-840.0,-490.0,1013.3341008769023,1033.537614216338
442240.812,0.00834399999998277,154.0,-986.0,-174.0,350.0,-840.0,-490.0,1013.0093780414868,1033.537614216338
442240.984,0.008516000000003259,154.0,-986.0,-174.0,420.0,-700.0,-560.0,1013.0093780414868,989.9494936611666
442240.984,0.008516000000003259,156.0,-987.0,-174.0,420.0,-700.0,-630.0,1014.2884205195286,1031.1643903859365
442240.984,0.008516000000003259,157.0,-987.0,-176.0,420.0,-700.0,-630.0,1014.7876625186177,1031.1643903859365
442240.984,0.008516000000003259,157.0,-986.0,-175.0,420.0,-700.0,-630.0,1013.6419486189391,1031.1643903859365
442240.984,0.008516000000003259,157.0,-986.0,-175.0,490.0,-840.0,-560.0,1013.6419486189391,1122.1853679316978
442240.984,0.008516000000003259,156.0,-986.0,-173.0,350.0,-840.0,-490.0,1013.1441161058973,1033.537614216338
442240.984,0.008516000000003259,154.0,-986.0,-174.0,350.0,-700.0,-420.0,1013.0093780414868,888.2004278314664
442240.984,0.008516000000003259,153.0,-987.0,-175.0,350.0,-770.0,-560.0,1014.0034516706538,1014.3963722332606
442240.984,0.008516000000003259,153.0,-988.0,-174.0,280.0,-700.0,-630.0,1014.804907359045,982.496819333274
442240.984,0.008516000000003259,155.0,-987.0,-174.0,350.0,-630.0,-700.0,1014.1350994813265,1004.6890066085126
442240.984,0.008516000000003259,157.0,-986.0,-175.0,420.0,-700.0,-700.0,1013.6419486189391,1075.3604047016051
442240.984,0.008516000000003259,159.0,-986.0,-175.0,420.0,-770.0,-560.0,1013.9536478557587,1040.6248123122955
442240.984,0.008516000000003259,157.0,-986.0,-175.0,420.0,-840.0,-490.0,1013.6419486189391,1059.292216529509
442240.984,0.008516000000003259,155.0,-987.0,-175.0,420.0,-840.0,-490.0,1014.3071526909391,1059.292216529509
442240.984,0.008516000000003259,153.0,-986.0,-175.0,420.0,-770.0,-560.0,1013.030108140918,1040.6248123122955
442240.984,0.008516000000003259,153.0,-987.0,-174.0,350.0,-770.0,-560.0,1013.8313469211731,1014.3963722332606
442240.984,0.008516000000003259,154.0,-986.0,-175.0,420.0,-700.0,-630.0,1013.1816224152509,1031.1643903859365
442240.984,0.008516000000003259,156.0,-986.0,-175.0,350.0,-700.0,-630.0,1013.4875430906884,1004.6890066085126
442240.984,0.008516000000003259,158.0,-985.0,-175.0,420.0,-700.0,-630.0,1012.8247627304538,1031.1643903859365
442240.984,0.008516000000003259,158.0,-986.0,-175.0,350.0,-770.0,-560.0,1013.7973170215041,1014.3963722332606
442241.187,0.00871899999998277,157.0,-985.0,-175.0,420.0,-770.0,-490.0,1012.6692451141192,1004.6890066085126
442241.187,0.00871899999998277,155.0,-985.0,-174.0,420.0,-840.0,-420.0,1012.1887175818549,1028.7856919689348
442241.187,0.00871899999998277,154.0,-986.0,-174.0,420.0,-840.0,-560.0,1013.0093780414868,1093.4349546269316
442241.187,0.00871899999998277,152.0,-986.0,-174.0,420.0,-770.0,-560.0,1012.7072627368681,1040.6248123122955
442241.187,0.00871899999998277,155.0,-988.0,-174.0,420.0,-700.0,-700.0,1015.1083685991363,1075.3604047016051
442241.187,0.00871899999998277,158.0,-987.0,-174.0,420.0,-700.0,-700.0,1014.5979499289361,1075.3604047016051
442241.187,0.00871899999998277,159.0,-986.0,-175.0,420.0,-770.0,-630.0,1013.9536478557587,1079.907403437906
442241.187,0.00871899999998277,158.0,-986.0,-175.0,490.0,-840.0,-560.0,1013.7973170215041,1122.1853679316978
442241.187,0.00871899999998277,155.0,-986.0,-174.0,350.0,-840.0,-490.0,1013.1618824255086,1033.537614216338
442241.187,0.00871899999998277,155.0,-986.0,-174.0,350.0,-840.0,-490.0,1013.1618824255086,1033.537614216338
442241.187,0.00871899999998277,153.0,-986.0,-174.0,420.0,-770.0,-560.0,1012.8578380009704,1040.6248123122955
442241.187,0.00871899999998277,154.0,-986.0,-175.0,420.0,-700.0,-630.0,1013.1816224152509,1031.1643903859365
442241.187,0.00871899999998277,155.0,-987.0,-175.0,420.0,-700.0,-700.0,1014.3071526909391,1075.3604047016051
442241.187,0.00871899999998277,158.0,-987.0,-175.0,420.0,-700.0,-700.0,1014.7699246627286,1075.3604047016051
442241.187,0.00871899999998277,158.0,-986.0,-174.0,420.0,-770.0,-560.0,1013.6251772721512,1040.6248123122955
442241.187,0.00871899999998277,158.0,-986.0,-175.0,420.0,-840.0,-560.0,1013.7973170215041,1093.4349546269316
442241.187,0.00871899999998277,156.0,-986.0,-176.0,490.0,-840.0,-560.0,1013.660692736973,1122.1853679316978
442241.187,0.00871899999998277,154.0,-986.0,-177.0,420.0,-840.0,-560.0,1013.5289833053616,1093.4349546269316
442241.187,0.00871899999998277,154.0,-987.0,-174.0,420.0,-700.0,-560.0,1013.9827414704848,989.9494936611666
442241.187,0.00871899999998277,154.0,-987.0,-174.0,420.0,-700.0,-630.0,1013.9827414704848,1031.1643903859365
442241.375,0.008907000000006519,156.0,-986.0,-175.0,420.0,-700.0,-630.0,1013.4875430906884,1031.1643903859365
442241.375,0.008907000000006519,158.0,-986.0,-175.0,420.0,-700.0,-630.0,1013.7973170215041,1031.1643903859365
442241.375,0.008907000000006519,159.0,-986.0,-175.0,420.0,-770.0,-560.0,1013.9536478557587,1040.6248123122955
442241.375,0.008907000000006519,157.0,-986.0,-175.0,420.0,-840.0,-560.0,1013.6419486189391,1093.4349546269316
442241.375,0.008907000000006519,155.0,-986.0,-175.0,420.0,-840.0,-560.0,1013.3341008769023,1093.4349546269316
442241.375,0.008907000000006519,153.0,-986.0,-175.0,420.0,-840.0,-490.0,1013.030108140918,1059.292216529509
442241.375,0.008907000000006519,154.0,-986.0,-175.0,420.0,-770.0,-630.0,1013.1816224152509,1079.907403437906
442241.375,0.008907000000006519,156.0,-986.0,-175.0,420.0,-700.0,-560.0,1013.4875430906884,989.9494936611666
442241.375,0.008907000000006519,157.0,-986.0,-174.0,350.0,-700.0,-630.0,1013.4697824799712,1004.6890066085126
442241.375,0.008907000000006519,158.0,-986.0,-174.0,420.0,-770.0,-630.0,1013.6251772721512,1079.907403437906
442241.375,0.008907000000006519,157.0,-986.0,-175.0,420.0,-840.0,-560.0,1013.6419486189391,1093.4349546269316
442241.375,0.008907000000006519,156.0,-986.0,-175.0,420.0,-840.0,-560.0,1013.4875430906884,1093.4349546269316
442241.375,0.008907000000006519,154.0,-986.0,-174.0,420.0,-770.0,-490.0,1013.0093780414868,1004.6890066085126
442241.375,0.008907000000006519,154.0,-986.0,-174.0,420.0,-770.0,-490.0,1013.0093780414868,1004.6890066085126
442241.375,0.008907000000006519,154.0,-986.0,-174.0,350.0,-700.0,-560.0,1013.0093780414868,962.3408959407265
442241.375,0.008907000000006519,155.0,-986.0,-175.0,350.0,-700.0,-630.0,1013.3341008769023,1004.6890066085126
442241.375,0.008907000000006519,158.0,-987.0,-175.0,420.0,-700.0,-700.0,1014.7699246627286,1075.3604047016051
442241.375,0.008907000000006519,158.0,-987.0,-175.0,420.0,-770.0,-560.0,1014.7699246627286,1040.6248123122955
442241.375,0.008907000000006519,157.0,-987.0,-175.0,350.0,-840.0,-560.0,1014.6147051960168,1068.5036265731624
442241.375,0.008907000000006519,155.0,-986.0,-174.0,490.0,-910.0,-560.0,1013.1618824255086,1175.4998936622665
442241.531,0.009063000000023748,154.0,-986.0,-175.0,420.0,-840.0,-560.0,1013.1816224152509,1093.4349546269316
442241.531,0.009063000000023748,154.0,-986.0,-174.0,420.0,-700.0,-560.0,1013.0093780414868,989.9494936611666
442241.531,0.009063000000023748,156.0,-986.0,-175.0,350.0,-700.0,-630.0,1013.4875430906884,1004.6890066085126
442241.531,0.009063000000023748,157.0,-987.0,-175.0,420.0,-840.0,-700.0,1014.6147051960168,1171.3240371477057
442241.531,0.009063000000023748,157.0,-986.0,-175.0,420.0,-770.0,-630.0,1013.6419486189391,1079.907403437906
442241.531,0.009063000000023748,158.0,-986.0,-175.0,420.0,-770.0,-560.0,1013.7973170215041,1040.6248123122955
442241.531,0.009063000000023748,157.0,-986.0,-175.0,420.0,-770.0,-560.0,1013.6419486189391,1040.6248123122955
442241.531,0.009063000000023748,154.0,-985.0,-175.0,420.0,-910.0,-560.0,1012.2084765501621,1148.0853626799708
442241.531,0.009063000000023748,154.0,-986.0,-174.0,420.0,-770.0,-560.0,1013.0093780414868,1040.6248123122955
442241.531,0.009063000000023748,153.0,-986.0,-174.0,350.0,-770.0,-560.0,1012.8578380009704,1014.3963722332606
442241.531,0.009063000000023748,155.0,-986.0,-175.0,350.0,-770.0,-630.0,1013.3341008769023,1054.6563421323553
442241.531,0.009063000000023748,157.0,-986.0,-175.0,420.0,-700.0,-630.0,1013.6419486189391,1031.1643903859365
442241.531,0.009063000000023748,158.0,-986.0,-175.0,420.0,-840.0,-630.0,1013.7973170215041,1130.884609498246
442241.531,0.009063000000023748,156.0,-986.0,-175.0,420.0,-770.0,-630.0,1013.4875430906884,1079.907403437906
442241.531,0.009063000000023748,155.0,-986.0,-174.0,350.0,-770.0,-490.0,1013.1618824255086,977.4968030638258
442241.531,0.009063000000023748,155.0,-986.0,-174.0,420.0,-770.0,-630.0,1013.1618824255086,1079.907403437906
442241.531,0.009063000000023748,155.0,-987.0,-174.0,350.0,-770.0,-630.0,1014.1350994813265,1054.6563421323553
442241.531,0.009063000000023748,156.0,-986.0,-175.0,420.0,-770.0,-560.0,1013.4875430906884,1040.6248123122955
442241.531,0.009063000000023748,155.0,-986.0,-175.0,490.0,-700.0,-630.0,1013.3341008769023,1061.602562167217
442241.531,0.009063000000023748,156.0,-987.0,-174.0,420.0,-770.0,-630.0,1014.2884205195286,1079.907403437906
442241.718,0.00925,156.0,-986.0,-174.0,420.0,-770.0,-560.0,1013.3153507176332,1040.6248123122955
442241.718,0.00925,155.0,-986.0,-174.0,350.0,-770.0,-630.0,1013.1618824255086,1054.6563421323553
442241.718,0.00925,156.0,-985.0,-175.0,420.0,-840.0,-560.0,1012.5146912514406,1093.4349546269316
442241.718,0.00925,155.0,-987.0,-175.0,420.0,-840.0,-560.0,1014.3071526909391,1093.4349546269316
442241.718,0.00925,155.0,-987.0,-175.0,420.0,-840.0,-630.0,1014.3071526909391,1130.884609498246
442241.718,0.00925,155.0,-986.0,-174.0,420.0,-770.0,-560.0,1013.1618824255086,1040.6248123122955
442241.718,0.00925,156.0,-987.0,-174.0,420.0,-770.0,-630.0,1014.2884205195286,1079.907403437906
442241.718,0.00925,156.0,-986.0,-175.0,420.0,-840.0,-560.0,1013.4875430906884,1093.4349546269316
442241.718,0.00925,157.0,-986.0,-176.0,420.0,-770.0,-560.0,1013.8150718942779,1040.6248123122955
442241.718,0.00925,158.0,-986.0,-175.0,420.0,-770.0,-630.0,1013.7973170215041,1079.907403437906
442241.718,0.00925,155.0,-986.0,-175.0,420.0,-840.0,-560.0,1013.3341008769023,1093.4349546269316
442241.718,0.00925,155.0,-987.0,-175.0,490.0,-770.0,-560.0,1014.3071526909391,1070.7940978544848
442241.718,0.00925,154.0,-987.0,-175.0,420.0,-770.0,-560.0,1014.1548205279113,1040.6248123122955
442241.718,0.00925,155.0,-986.0,-174.0,420.0,-700.0,-630.0,1013.1618824255086,1031.1643903859365
442241.718,0.00925,156.0,-986.0,-176.0,350.0,-770.0,-630.0,1013.660692736973,1054.6563421323553
442241.718,0.00925,157.0,-985.0,-175.0,420.0,-770.0,-560.0,1012.6692451141192,1040.6248123122955
442241.718,0.00925,157.0,-985.0,-175.0,420.0,-770.0,-630.0,1012.6692451141192,1079.907403437906
442241.718,0.00925,156.0,-986.0,-176.0,420.0,-770.0,-630.0,1013.660692736973,1079.907403437906
442241.718,0.00925,156.0,-987.0,-175.0,420.0,-840.0,-560.0,1014.4604477257849,1093.4349546269316
442241.718,0.00925,155.0,-986.0,-174.0,420.0,-770.0,-560.0,1013.1618824255086,1040.6248123122955
442241.906,0.009438000000023749,155.0,-987.0,-174.0,420.0,-840.0,-560.0,1014.1350994813265,1093.4349546269316
442241.906,0.009438000000023749,155.0,-987.0,-175.0,420.0,-700.0,-630.0,1014.3071526909391,1031.1643903859365
442241.906,0.009438000000023749,156.0,-987.0,-175.0,350.0,-770.0,-700.0,1014.4604477257849,1097.9070998950685
442241.906,0.009438000000023749,157.0,-987.0,-175.0,420.0,-700.0,-630.0,1014.6147051960168,1031.1643903859365
442241.906,0.009438000000023749,157.0,-986.0,-174.0,420.0,-840.0,-630.0,1013.4697824799712,1130.884609498246
442241.906,0.009438000000023749,155.0,-986.0,-175.0,350.0,-840.0,-560.0,1013.3341008769023,1068.5036265731624
442241.906,0.009438000000023749,155.0,-985.0,-174.0,420.0,-840.0,-560.0,1012.1887175818549,1093.4349546269316
442241.906,0.009438000000023749,154.0,-986.0,-175.0,490.0,-770.0,-560.0,1013.1816224152509,1070.7940978544848
442241.906,0.009438000000023749,154.0,-987.0,-174.0,420.0,-770.0,-630.0,1013.9827414704848,1079.907403437906
442241.906,0.009438000000023749,156.0,-987.0,-174.0,420.0,-700.0,-630.0,1014.2884205195286,1031.1643903859365
442241.906,0.009438000000023749,157.0,-986.0,-174.0,420.0,-700.0,-630.0,1013.4697824799712,1031.1643903859365
442241.906,0.009438000000023749,158.0,-985.0,-176.0,420.0,-770.0,-630.0,1012.9980256644136,1079.907403437906
442241.906,0.009438000000023749,158.0,-986.0,-175.0,490.0,-770.0,-560.0,1013.7973170215041,1070.7940978544848
442241.906,0.009438000000023749,157.0,-986.0,-175.0,420.0,-770.0,-560.0,1013.6419486189391,1040.6248123122955
442241.906,0.009438000000023749,155.0,-986.0,-175.0,420.0,-770.0,-560.0,1013.3341008769023,1040.6248123122955
442241.906,0.009438000000023749,154.0,-986.0,-175.0,420.0,-770.0,-560.0,1013.1816224152509,1040.6248123122955
442241.906,0.009438000000023749,154.0,-987.0,-174.0,490.0,-770.0,-630.0,1013.9827414704848,1109.00856624284
442241.906,0.009438000000023749,156.0,-987.0,-175.0,420.0,-700.0,-700.0,1014.4604477257849,1075.3604047016051
442241.906,0.009438000000023749,157.0,-986.0,-174.0,420.0,-770.0,-630.0,1013.4697824799712,1079.907403437906
442241.906,0.009438000000023749,158.0,-986.0,-175.0,350.0,-840.0,-630.0,1013.7973170215041,1106.7971810589327
442242.093,0.009625,157.0,-986.0,-175.0,420.0,-840.0,-560.0,1013.6419486189391,1093.4349546269316
442242.093,0.009625,155.0,-986.0,-175.0,420.0,-840.0,-490.0,1013.3341008769023,1059.292216529509
442242.093,0.009625,153.0,-986.0,-174.0,420.0,-840.0,-490.0,1012.8578380009704,1059.292216529509
442242.093,0.009625,153.0,-987.0,-173.0,350.0,-700.0,-560.0,1013.6601994751495,962.3408959407265
442242.093,0.009625,154.0,-987.0,-174.0,420.0,-700.0,-630.0,1013.9827414704848,1031.1643903859365
442242.093,0.009625,157.0,-987.0,-175.0,420.0,-700.0,-630.0,1014.6147051960168,1031.1643903859365
442242.093,0.009625,158.0,-987.0,-175.0,350.0,-770.0,-630.0,1014.7699246627286,1054.6563421323553
442242.093,0.009625,158.0,-985.0,-175.0,420.0,-840.0,-560.0,1012.8247627304538,1093.4349546269316
442242.093,0.009625,156.0,-986.0,-176.0,420.0,-840.0,-490.0,1013.660692736973,1059.292216529509
442242.093,0.009625,154.0,-986.0,-175.0,420.0,-910.0,-490.0,1013.1816224152509,1115.616421535646
442242.093,0.009625,153.0,-987.0,-174.0,420.0,-840.0,-560.0,1013.8313469211731,1093.4349546269316
442242.093,0.009625,153.0,-986.0,-175.0,420.0,-700.0,-630.0,1013.030108140918,1031.1643903859365
442242.093,0.009625,155.0,-986.0,-175.0,420.0,-700.0,-700.0,1013.3341008769023,1075.3604047016051
442242.093,0.009625,157.0,-986.0,-174.0,420.0,-770.0,-630.0,1013.4697824799712,1079.907403437906
442242.093,0.009625,159.0,-985.0,-175.0,420.0,-770.0,-630.0,1012.9812436565644,1079.907403437906
442242.093,0.009625,157.0,-986.0,-175.0,420.0,-770.0,-560.0,1013.6419486189391,1040.6248123122955
442242.093,0.009625,157.0,-986.0,-175.0,350.0,-910.0,-490.0,1013.6419486189391,1091.1920087683927
442242.093,0.009625,154.0,-986.0,-175.0,420.0,-910.0,-490.0,1013.1816224152509,1115.616421535646
