timestamp_us,relative_time_ms,accel_x_mg,accel_y_mg,accel_z_mg,gyro_x_dps,gyro_y_dps,gyro_z_dps,accel_magnitude,gyro_magnitude
52257525,0.0,234.0,-957.0,-239.0,0.419,-0.769,-0.699,1013.7682180853767,1.1205012271300732
52449825,192.3,229.0,-959.0,-239.0,0.419,-0.839,-0.629,1014.5161408277347,1.1292134430655703
52632510,374.985,225.0,-959.0,-238.0,0.349,-0.699,-0.56,1013.3854153282452,0.9612502275682435
52815195,557.67,231.0,-958.0,-237.0,0.49,-0.699,-0.769,1013.5551292357017,1.1489395110274518
52997880,740.355,226.0,-958.0,-239.0,0.419,-0.839,-0.49,1012.8973294465733,1.0581030195590597
53180565,923.04,228.0,-959.0,-238.0,0.419,-0.769,-0.49,1014.0557183902667,1.0035048579852517
53363250,1105.725,232.0,-959.0,-236.0,0.419,-0.839,-0.629,1014.4954410937488,1.1292134430655703
53545935,1288.41,225.0,-959.0,-238.0,0.49,-0.839,-0.49,1013.3854153282452,1.0881732398841646
53728620,1471.095,227.0,-959.0,-239.0,0.419,-0.769,-0.49,1014.0665658624191,1.0035048579852517
53911305,1653.78,231.0,-958.0,-237.0,0.349,-0.839,-0.56,1013.5551292357017,1.0673902753913396
54093990,1836.465,233.0,-958.0,-238.0,0.349,-0.839,-0.699,1014.2470113340241,1.1464392700880408
54276675,2019.15,229.0,-957.0,-238.0,0.419,-0.839,-0.629,1012.3902409644218,1.1292134430655703
54459360,2201.835,226.0,-959.0,-236.0,0.49,-0.699,-0.56,1013.1401679925636,1.020931437462869
54642045,2384.52,230.0,-958.0,-237.0,0.49,-0.839,-0.49,1013.3276863877745,1.0881732398841646
54824730,2567.205,228.0,-958.0,-239.0,0.49,-0.91,-0.769,1013.3454494889687,1.288239496367038
55007415,2749.89,225.0,-958.0,-239.0,0.49,-0.769,-0.56,1012.674676290466,1.0700752310001387
55190100,2932.575,229.0,-958.0,-237.0,0.419,-0.699,-0.49,1013.1011795472356,0.9509269162243752
55382400,3124.875,228.0,-959.0,-237.0,0.349,-0.769,-0.56,1013.8214832996981,1.0132926526922021
55565085,3307.56,229.0,-958.0,-237.0,0.349,-0.839,-0.629,1013.1011795472356,1.1051529305937706
55747770,3490.245,234.0,-957.0,-238.0,0.419,-0.839,-0.629,1013.5329299041052,1.1292134430655703
55930455,3672.93,226.0,-958.0,-237.0,0.419,-0.769,-0.56,1012.4272813392574,1.039481601568782
56113140,3855.615,228.0,-958.0,-236.0,0.49,-0.699,-0.49,1012.642088795444,0.9842768919364103
56295825,4038.3,233.0,-956.0,-237.0,0.49,-0.91,-0.629,1012.1235102496138,1.2098929704730084
56478510,4220.985,228.0,-958.0,-238.0,0.419,-0.839,-0.839,1013.1100631224625,1.2583334216335509
56661195,4403.67,226.0,-959.0,-238.0,0.419,-0.839,-0.56,1013.6079123605932,1.0922829303802197
56843880,4586.355,227.0,-959.0,-241.0,0.419,-0.769,-0.56,1014.5397971494267,1.039481601568782
57026565,4769.04,231.0,-959.0,-238.0,0.349,-0.769,-0.349,1014.7344480207618,0.9137630984013306
57209250,4951.725,233.0,-958.0,-235.0,0.349,-0.839,-0.699,1013.5472361957286,1.1464392700880408
57401550,5144.025,225.0,-958.0,-237.0,0.349,-0.839,-0.699,1012.2045247873574,1.1464392700880408
57584235,5326.71,230.0,-959.0,-234.0,0.49,-0.699,-0.56,1013.5763414760627,1.020931437462869
57776535,5519.01,231.0,-958.0,-235.0,0.49,-0.769,-0.699,1013.0893346590912,1.1489395110274518
57959220,5701.695,226.0,-959.0,-237.0,0.49,-0.839,-0.699,1013.3735737624107,1.1969218855046473
58141905,5884.38,225.0,-959.0,-238.0,0.49,-0.699,-0.49,1013.3854153282452,0.9842768919364103
58324590,6067.065,236.0,-959.0,-237.0,0.56,-1.12,-0.699,1015.6505304483427,1.4340854228392395
58507275,6249.75,215.0,-961.0,-241.0,0.349,-0.98,-0.629,1013.8180310095102,1.2156652499763247
58699575,6442.05,226.0,-959.0,-240.0,0.49,-0.699,-0.209,1014.079385452638,0.8788526611440622
58882260,6624.735,232.0,-957.0,-237.0,0.419,-0.839,-0.56,1012.8385853629393,1.0922829303802197
59064945,6807.42,225.0,-960.0,-239.0,0.349,-0.91,-0.839,1014.5669026732539,1.2860101088249656
59247630,6990.105,224.0,-958.0,-238.0,0.349,-0.629,-0.629,1012.2173679600642,0.9555537661481953
59430315,7172.79,227.0,-960.0,-237.0,0.419,-0.56,-0.49,1014.5432469835872,0.8539677979877227
59613000,7355.475,233.0,-958.0,-238.0,0.349,-0.769,-0.56,1014.2470113340241,1.0132926526922021
59795685,7538.16,232.0,-957.0,-236.0,0.49,-0.839,-0.699,1012.6050562781128,1.1969218855046473
59978370,7720.845,224.0,-959.0,-236.0,0.49,-0.839,-0.56,1012.6959069730656,1.12143702453593
60161055,7903.53,224.0,-959.0,-237.0,0.49,-0.629,-0.56,1012.9294151124253,0.9743413159668433
60343740,8086.215,225.0,-960.0,-240.0,0.419,-0.56,-0.419,1014.8029365349709,0.8153048509606698
60526425,8268.9,239.0,-959.0,-236.0,0.349,-0.699,-0.699,1016.1190875089396,1.0483334393216692
60709110,8451.585,221.0,-959.0,-236.0,0.419,-0.91,-0.56,1012.0365606044082,1.147719913567766
60891795,8634.27,226.0,-960.0,-235.0,0.49,-0.699,-0.49,1013.8545260539107,0.9842768919364103
61074480,8816.955,229.0,-958.0,-237.0,0.419,-0.91,-0.49,1013.1011795472356,1.1152403328431053
61257165,8999.64,225.0,-959.0,-237.0,0.49,-0.839,-0.629,1013.1510252672106,1.1574376873076149
61439850,9182.325,227.0,-959.0,-238.0,0.349,-0.769,-0.419,1013.8313469211731,0.9427210616083636
61622535,9365.01,228.0,-958.0,-238.0,0.349,-0.839,-0.699,1013.1100631224625,1.1464392700880408
61805220,9547.695,224.0,-958.0,-239.0,0.349,-0.769,-0.419,1012.4529618703281,0.9427210616083636
61987905,9730.38,231.0,-957.0,-238.0,0.419,-0.699,-0.769,1012.8445092905425,1.1205012271300732
62180205,9922.68,227.0,-959.0,-237.0,0.419,-0.699,-0.56,1013.5970599799508,0.9888184868821982
62362890,10105.365,233.0,-957.0,-237.0,0.49,-0.769,-0.49,1013.0681122214834,1.03516230611436
62545575,10288.05,232.0,-957.0,-236.0,0.49,-0.839,-0.769,1012.6050562781128,1.2391053223999968
62728260,10470.735,230.0,-959.0,-237.0,0.49,-0.769,-0.699,1014.2731387550397,1.1489395110274518
62910945,10653.42,226.0,-959.0,-237.0,0.56,-0.769,-0.56,1013.3735737624107,1.1038845048282906
63093630,10836.105,229.0,-958.0,-236.0,0.419,-0.769,-0.629,1012.8677110067238,1.0782221477970113
63276315,11018.79,228.0,-958.0,-238.0,0.419,-0.769,-0.56,1013.1100631224625,1.039481601568782
63459000,11201.475,231.0,-959.0,-236.0,0.49,-0.629,-0.419,1014.2672231714874,0.9007230428938742
63641685,11384.16,233.0,-957.0,-235.0,0.419,-0.769,-0.769,1012.6020936182189,1.1654539887957827
63824370,11566.845,223.0,-959.0,-236.0,0.56,-0.769,-0.699,1012.4751848810913,1.1804922701991742
64007055,11749.53,229.0,-959.0,-238.0,0.49,-0.769,-0.49,1014.2810261461071,1.03516230611436
64189740,11932.215,230.0,-958.0,-237.0,0.49,-0.839,-0.699,1013.3276863877745,1.1969218855046473
64372425,12114.9,228.0,-959.0,-238.0,0.49,-0.839,-0.629,1014.0557183902667,1.1574376873076149
64555110,12297.585,229.0,-958.0,-237.0,0.56,-0.839,-0.56,1013.1011795472356,1.1537421722378012
64737795,12480.27,227.0,-959.0,-237.0,0.419,-0.769,-0.699,1013.5970599799508,1.1205012271300732
64920480,12662.955,224.0,-960.0,-239.0,0.349,-0.699,-0.419,1014.3456018537272,0.8865455431053725
65112780,12855.255,231.0,-958.0,-238.0,0.419,-0.56,-0.56,1013.7894258671275,0.8959693075100286
65295465,13037.94,233.0,-957.0,-235.0,0.349,-0.769,-0.49,1012.6020936182189,0.9763513711774056
65478150,13220.625,226.0,-959.0,-236.0,0.419,-0.91,-0.769,1013.1401679925636,1.262941803884882
65660835,13403.31,233.0,-958.0,-233.0,0.91,-1.12,-0.629,1013.0853863322676,1.5742112310614482
65843520,13585.995,201.0,-966.0,-240.0,0.629,-0.839,-0.91,1015.459009512447,1.3884026793405435
66026205,13768.68,219.0,-961.0,-241.0,0.209,-0.49,0.14,1014.6738392212544,0.5508003267972886
66208890,13951.365,241.0,-955.0,-239.0,0.419,-0.769,-0.769,1013.5220767205814,1.1654539887957827
66391575,14134.05,227.0,-959.0,-236.0,0.28,-0.91,-0.839,1013.36370568518,1.2690236404417374
66583875,14326.35,231.0,-959.0,-234.0,0.419,-0.699,-0.629,1013.8037285392079,1.0294673379957229
66766560,14509.035,235.0,-957.0,-234.0,0.56,-0.839,-0.699,1012.8326614006877,1.2272416225014535
66949245,14691.72,223.0,-960.0,-240.0,0.56,-0.839,-0.699,1014.3613754476262,1.2272416225014535
67131930,14874.405,226.0,-959.0,-239.0,0.349,-0.699,-0.49,1013.8431831402725,0.9222266532691407
67314615,15057.09,232.0,-958.0,-237.0,0.349,-0.839,-0.629,1013.7835074610358,1.1051529305937706
67497300,15239.775,224.0,-958.0,-236.0,0.49,-0.699,-0.56,1011.7489807259507,1.020931437462869
67679985,15422.46,235.0,-958.0,-237.0,0.419,-0.629,-0.49,1014.4742480713841,0.9007230428938742
67862670,15605.145,233.0,-956.0,-234.0,0.419,-0.769,-0.769,1011.4252320364566,1.1654539887957827
68045355,15787.83,226.0,-959.0,-235.0,0.49,-0.699,-0.56,1012.9076956959109,1.020931437462869
68228040,15970.515,229.0,-958.0,-236.0,0.49,-0.629,-0.629,1012.8677110067238,1.0155697908071113
68410725,16153.2,229.0,-957.0,-237.0,0.49,-0.839,-0.699,1012.1556204457889,1.1969218855046473
68603025,16345.5,231.0,-958.0,-236.0,0.419,-0.699,-0.699,1013.3217652848477,1.0736680120037105
68785710,16528.185,230.0,-958.0,-237.0,0.349,-0.839,-0.56,1013.3276863877745,1.0673902753913396
68978010,16720.485,232.0,-958.0,-238.0,0.349,-0.839,-0.629,1014.0177513239105,1.1051529305937706
69160695,16903.17,225.0,-959.0,-237.0,0.49,-0.91,-0.56,1013.1510252672106,1.1754998936622667
69343380,17085.855,225.0,-960.0,-238.0,0.419,-0.839,-0.419,1014.3317997578505,1.0271528610679133
69526065,17268.54,231.0,-956.0,-237.0,0.49,-0.839,-0.419,1011.6649643038944,1.0581030195590597
69708750,17451.225,227.0,-959.0,-238.0,0.349,-0.839,-0.629,1013.8313469211731,1.1051529305937706
69891435,17633.91,229.0,-959.0,-238.0,0.419,-0.839,-0.699,1014.2810261461071,1.1696508025902432
70074120,17816.595,223.0,-960.0,-238.0,0.419,-0.91,-0.769,1013.8900334848943,1.262941803884882
70256805,17999.28,220.0,-959.0,-240.0,0.349,-0.839,-0.209,1012.7591026497861,0.9324178247974455
70449105,18191.58,234.0,-957.0,-238.0,0.349,-0.629,-0.49,1013.5329299041052,0.8703688873115812
70631790,18374.265,235.0,-957.0,-239.0,0.419,-0.839,-1.049,1013.9995069032332,1.4070831531931578
70814475,18556.95,218.0,-961.0,-235.0,0.419,-0.56,-0.419,1013.049850698375,0.8153048509606698
70997160,18739.635,235.0,-958.0,-237.0,0.419,-0.629,-0.349,1014.4742480713841,0.8324680174036717
71179845,18922.32,231.0,-958.0,-237.0,0.419,-0.91,-0.839,1013.5551292357017,1.3067448105885096
71362530,19105.005,224.0,-959.0,-235.0,0.419,-0.699,-0.629,1012.4633326693861,1.0294673379957229
71545215,19287.69,229.0,-958.0,-236.0,0.49,-0.629,-0.56,1012.8677110067238,0.9743413159668433
71727900,19470.375,232.0,-958.0,-237.0,0.49,-0.769,-0.769,1013.7835074610358,1.192821025971625
71910585,19653.06,229.0,-958.0,-237.0,0.349,-0.769,-0.49,1013.1011795472356,0.9763513711774056
72093270,19835.745,231.0,-958.0,-236.0,0.349,-0.839,-0.49,1013.3217652848477,1.0323865555110643
72275955,20018.43,234.0,-957.0,-236.0,0.49,-0.91,-0.839,1013.065150915774,1.3312103515222529
72458640,20201.115,224.0,-959.0,-239.0,0.49,-0.839,-0.49,1013.3992303135028,1.0881732398841646
72641325,20383.8,230.0,-957.0,-238.0,0.419,-0.769,-0.49,1012.6169068310088,1.0035048579852517
72824010,20566.485,230.0,-959.0,-238.0,0.349,-0.699,-0.629,1014.5072695648859,1.0030169490093375
73006695,20749.17,229.0,-959.0,-236.0,0.349,-0.839,-0.699,1013.813592333423,1.1464392700880408
73189380,20931.855,227.0,-958.0,-237.0,0.419,-0.839,-0.56,1012.6509763980876,1.0922829303802197
73381680,21124.155,231.0,-959.0,-237.0,0.49,-0.769,-0.699,1014.5003696401495,1.1489395110274518
73564365,21306.84,228.0,-959.0,-239.0,0.56,-0.839,-0.629,1014.2908852986899,1.1887649052693303
73747050,21489.525,224.0,-961.0,-239.0,0.419,-0.839,-0.49,1015.2920762027053,1.0581030195590597
73929735,21672.21,235.0,-957.0,-238.0,0.419,-0.839,-0.56,1013.7642724026133,1.0922829303802197
74112420,21854.895,223.0,-959.0,-238.0,0.49,-0.91,-0.98,1012.9432363168235,1.4242892964563063
74295105,22037.58,222.0,-961.0,-241.0,0.349,-0.699,-0.349,1015.3255635509233,0.8556886115871823
74477790,22220.265,235.0,-956.0,-236.0,0.419,-0.769,-0.349,1012.3522114363162,0.9427210616083636
74660475,22402.95,231.0,-958.0,-235.0,0.349,-0.91,-0.839,1013.0893346590912,1.2860101088249656
74843160,22585.635,228.0,-960.0,-236.0,0.419,-0.769,-0.28,1014.5343759577593,0.9194139437707044
75025845,22768.32,234.0,-957.0,-236.0,0.56,-0.91,-0.49,1013.065150915774,1.1754998936622667
75208530,22951.005,219.0,-960.0,-237.0,0.56,-0.839,-0.91,1012.783293701076,1.3585363447475374
75400830,23143.305,215.0,-962.0,-240.0,0.28,-0.49,-0.209,1014.5289547371233,0.6018147555519057
75583515,23325.99,238.0,-956.0,-236.0,0.349,-0.699,-0.49,1013.0528120488092,0.9222266532691407
75775815,23518.29,234.0,-958.0,-238.0,0.28,-1.049,-0.98,1014.4772052638739,1.4626007657594058
75958500,23700.975,229.0,-959.0,-236.0,0.419,-0.98,-0.629,1013.813592333423,1.2375790883818294
76141185,23883.66,227.0,-958.0,-236.0,0.56,-0.769,-0.629,1012.4174040384727,1.1404393890075877
76323870,24066.345,228.0,-957.0,-237.0,0.56,-0.769,-0.839,1011.9298394651677,1.2684171238200783
76506555,24249.03,224.0,-959.0,-241.0,0.49,-0.629,-0.699,1013.872773083487,1.0603499422360525
76689240,24431.715,233.0,-955.0,-241.0,0.28,-0.629,-0.98,1012.1240042603475,1.197681510252204
76871925,24614.4,226.0,-958.0,-238.0,0.349,-0.56,-0.349,1012.6618389176123,0.7464596439192142
77054610,24797.085,243.0,-955.0,-236.0,0.349,-0.769,-0.56,1013.296600211409,1.0132926526922021
77246910,24989.385,232.0,-958.0,-237.0,0.349,-0.91,-1.12,1013.7835074610358,1.4846888562927925
77429595,25172.07,224.0,-959.0,-238.0,0.349,-0.699,-0.28,1013.16385644179,0.8299409617557142
77612280,25354.755,236.0,-956.0,-235.0,0.56,-0.839,-0.49,1012.3522114363162,1.12143702453593
77794965,25537.44,230.0,-959.0,-237.0,0.419,-0.98,-1.259,1014.2731387550397,1.6495581226498204
77977650,25720.125,224.0,-959.0,-239.0,0.56,-0.91,-0.56,1013.3992303135028,1.206358155772986
78160335,25902.81,221.0,-960.0,-242.0,0.49,-1.049,-0.629,1014.3988367501216,1.3176274131938817
78343020,26085.495,224.0,-959.0,-244.0,0.49,-0.839,-0.56,1014.5900650016242,1.12143702453593
78525705,26268.18,228.0,-958.0,-242.0,0.209,-0.839,-0.629,1014.0571975978476,1.0692254205732297
78708390,26450.865,225.0,-960.0,-236.0,0.209,-0.699,-0.349,1013.8643893539214,0.8087539798974716
78891075,26633.55,234.0,-957.0,-234.0,0.349,-0.839,-0.56,1012.6011060629946,1.0673902753913396
79073760,26816.235,243.0,-955.0,-235.0,0.419,-0.699,-0.98,1013.0641638119473,1.2745830690857305
79256445,26998.92,229.0,-959.0,-234.0,0.56,-0.91,-0.56,1013.3498902156155,1.206358155772986
79439130,27181.605,225.0,-959.0,-238.0,0.629,-0.699,-0.49,1013.3854153282452,1.0603499422360525
79621815,27364.29,221.0,-955.0,-242.0,0.49,-0.769,-0.419,1009.6682623515508,1.0035048579852517
79804500,27546.975,237.0,-955.0,-240.0,0.629,-0.91,-0.91,1012.814889306037,1.4324248671396347
79987185,27729.66,223.0,-961.0,-240.0,0.49,-0.769,-0.769,1015.3078350923921,1.192821025971625
80179485,27921.96,209.0,-962.0,-239.0,0.419,-0.49,-0.209,1013.0380052100711,0.6777477406823279
80362170,28104.645,232.0,-956.0,-237.0,0.349,-0.629,-0.14,1011.8937691279654,0.732831494956378
80544855,28287.33,231.0,-958.0,-237.0,0.209,-0.629,-0.56,1013.5551292357017,0.867710781309072
80727540,28470.015,240.0,-956.0,-230.0,0.49,-0.699,-0.769,1012.1442584928296,1.1489395110274518
80910225,28652.7,228.0,-958.0,-230.0,0.769,-0.699,-0.98,1011.2605994500132,1.428412405434789
81092910,28835.385,228.0,-960.0,-238.0,0.699,-0.699,-0.49,1015.0014778314364,1.1033140985231722
81275595,29018.07,232.0,-958.0,-242.0,0.49,-0.699,-0.419,1014.9640387718177,0.9509269162243752
81458280,29200.755,234.0,-957.0,-239.0,0.49,-0.769,-0.769,1013.7682180853767,1.192821025971625
81640965,29383.44,213.0,-962.0,-241.0,0.56,-0.419,-1.259,1014.3441230667233,1.440222899415226
81823650,29566.125,223.0,-961.0,-241.0,0.349,-0.28,-0.07,1015.5446814394727,0.4528807790136384
82006335,29748.81,245.0,-955.0,-241.0,0.349,-0.839,-0.419,1014.9536935249805,1.000641294370765
82198635,29941.11,243.0,-956.0,-237.0,0.49,-0.91,-1.049,1014.4722766049351,1.472617058165496
82381320,30123.795,231.0,-958.0,-234.0,0.629,-0.769,-0.56,1012.8578380009704,1.1404393890075877
82573620,30316.095,239.0,-955.0,-232.0,0.56,-0.56,-0.98,1011.419794150777,1.26
82756305,30498.78,231.0,-958.0,-238.0,0.769,-0.91,-0.629,1013.7894258671275,1.3472572137494756
82938990,30681.465,234.0,-959.0,-242.0,0.349,-0.49,-0.49,1016.3665677303637,0.7758872340746431
83121675,30864.15,239.0,-957.0,-237.0,0.28,-0.56,-0.769,1014.4648835716296,0.9916456020171723
83304360,31046.835,224.0,-959.0,-238.0,0.28,-0.98,-0.839,1013.16385644179,1.3201215853094743
83487045,31229.52,224.0,-959.0,-238.0,0.419,-0.91,-0.699,1013.16385644179,1.221581761487949
83669730,31412.205,231.0,-958.0,-240.0,0.419,-1.049,-0.419,1014.2608145837046,1.2047916832382268
83852415,31594.89,219.0,-960.0,-240.0,0.419,-0.91,-0.699,1013.4895164726669,1.221581761487949
84044715,31787.19,230.0,-959.0,-242.0,0.349,-0.629,-0.699,1015.4531008372568,1.0030169490093375
84227400,31969.875,231.0,-954.0,-239.0,0.419,-0.699,-0.699,1010.2465045720277,1.0736680120037105
84410085,32152.56,244.0,-955.0,-236.0,0.49,-0.769,-0.629,1013.5368764874813,1.107746360860644
84592770,32335.245,237.0,-956.0,-242.0,0.629,-1.539,-1.399,1014.2332078964877,2.172869761398506
84775455,32517.93,206.0,-966.0,-244.0,0.769,-1.47,-0.14,1017.4124040918707,1.6648906871023095
84958140,32700.615,198.0,-965.0,-245.0,0.209,-0.769,0.349,1015.1128016136926,0.8699672407625473
85140825,32883.3,233.0,-958.0,-239.0,0.14,-0.98,0.07,1014.4821338988677,0.9924212815130478
85323510,33065.985,225.0,-959.0,-236.0,0.419,-0.91,-1.259,1012.9175682156964,1.608956804889429
85506195,33248.67,221.0,-960.0,-234.0,0.56,-0.769,-0.699,1012.5201232568171,1.1804922701991742
85688880,33431.355,238.0,-959.0,-239.0,0.629,-0.839,-1.12,1016.5854612377653,1.5342626893723252
85871565,33614.04,217.0,-962.0,-246.0,0.56,-0.98,-0.769,1016.3901809836614,1.3657821934701009
86054250,33796.725,229.0,-960.0,-246.0,0.28,-0.629,-0.769,1017.1317515445086,1.0321831232877237
86236935,33979.41,231.0,-959.0,-241.0,0.209,-0.91,-0.349,1015.4422681767783,0.9967858345702952
86419620,34162.095,230.0,-958.0,-241.0,0.349,-1.12,-0.769,1014.2706739327525,1.4026981143496273
86602305,34344.78,218.0,-960.0,-241.0,0.419,-0.91,-0.28,1013.5112234208361,1.040221611004117
86784990,34527.465,226.0,-958.0,-238.0,0.349,-0.629,-0.419,1012.6618389176123,0.8324680174036717
86977290,34719.765,233.0,-960.0,-239.0,0.49,-0.699,-0.56,1016.3709952571453,1.020931437462869
87159975,34902.45,225.0,-959.0,-238.0,0.419,-0.769,-0.14,1013.3854153282452,0.886860755699563
87342660,35085.135,229.0,-958.0,-234.0,0.349,-0.629,-0.349,1012.4035756554794,0.7995267350126573
87525345,35267.82,222.0,-958.0,-231.0,0.49,-0.56,-0.49,1010.1529587146691,0.8909545442950499
87708030,35450.505,231.0,-958.0,-234.0,0.419,-0.699,-0.56,1012.8578380009704,0.9888184868821982
87890715,35633.19,233.0,-957.0,-234.0,0.49,-0.769,-0.769,1012.3704855437064,1.192821025971625
88073400,35815.875,226.0,-960.0,-238.0,0.349,-0.91,-0.839,1014.5540892431512,1.2860101088249656
88256085,35998.56,227.0,-958.0,-238.0,0.419,-0.769,-0.49,1012.8854821745645,1.0035048579852517
88438770,36181.245,221.0,-960.0,-238.0,0.349,-0.769,-0.419,1013.4520215580015,0.9427210616083636
88621455,36363.93,219.0,-961.0,-237.0,0.14,-0.699,-0.28,1013.7312267065664,0.7658988183826895
88804140,36546.615,226.0,-959.0,-237.0,0.28,-0.98,-0.49,1013.3735737624107,1.1308846094982459
88986825,36729.3,233.0,-958.0,-237.0,0.209,-0.98,-0.629,1014.0128204317734,1.1830984743460706
89169510,36911.985,239.0,-956.0,-238.0,0.349,-0.839,-0.839,1013.7558877757505,1.236787370569412
89352195,37094.67,237.0,-956.0,-237.0,0.629,-0.769,-0.839,1013.0518249329597,1.300354951542078
89534880,37277.355,229.0,-960.0,-238.0,0.56,-0.699,-0.699,1015.2265756962827,1.1361346751155867
89717565,37460.04,223.0,-960.0,-237.0,0.49,-0.699,-0.209,1013.6557601079372,0.8788526611440622
89909865,37652.34,223.0,-958.0,-235.0,0.349,-0.629,-0.349,1011.2952091254067,0.7995267350126573
90092550,37835.025,223.0,-957.0,-235.0,0.349,-0.769,-0.699,1010.3479598633335,1.0962495153932794
90275235,38017.71,224.0,-959.0,-235.0,0.209,-0.839,-0.699,1012.4633326693861,1.1118466620896965
90457920,38200.395,226.0,-958.0,-237.0,0.349,-0.98,-0.769,1012.4272813392574,1.2936622434004943
90640605,38383.08,223.0,-957.0,-240.0,0.28,-0.98,-0.769,1011.5226146755198,1.276777584389701
90823290,38565.765,229.0,-958.0,-241.0,0.28,-1.049,-0.699,1014.0443777271289,1.2912792107054152
91005975,38748.45,225.0,-958.0,-239.0,0.28,-0.839,-0.699,1012.674676290466,1.1273517640914037
91188660,38931.135,227.0,-958.0,-238.0,0.28,-0.839,-0.91,1012.8854821745645,1.2690236404417374
91371345,39113.82,224.0,-960.0,-243.0,0.419,-1.12,-0.769,1015.2955234807253,1.4217320422639423
91554030,39296.505,224.0,-959.0,-242.0,0.419,-0.98,-0.56,1014.1109406766105,1.2039771592517858
91736715,39479.19,222.0,-961.0,-241.0,0.209,-0.98,-0.419,1015.3255635509233,1.0861132537631608
91919400,39661.875,228.0,-959.0,-238.0,0.349,-0.769,-0.49,1014.0557183902667,0.9763513711774056
92102085,39844.56,233.0,-958.0,-238.0,0.349,-0.699,-1.049,1014.2470113340241,1.3079766817493346
92284770,40027.245,230.0,-960.0,-238.0,0.419,-0.769,-0.56,1015.4526084461057,1.039481601568782
92467455,40209.93,233.0,-958.0,-239.0,0.49,-1.049,-0.49,1014.4821338988677,1.2572195512320035
92650140,40392.615,223.0,-959.0,-242.0,0.49,-0.98,-1.049,1013.8905266349026,1.516872110627656
92842440,40584.915,225.0,-961.0,-239.0,0.56,-0.769,-0.769,1015.5131707663865,1.2232424126067571
93025125,40767.6,224.0,-960.0,-239.0,0.49,-0.629,-0.14,1014.3456018537272,0.8095313459032948
93207810,40950.285,224.0,-956.0,-237.0,0.49,-0.629,-0.699,1010.0895999860606,1.0603499422360525
93390495,41132.97,223.0,-960.0,-236.0,0.349,-0.49,-0.699,1013.4224193296693,0.9222266532691407
93573180,41315.655,236.0,-957.0,-235.0,0.49,-0.629,-0.419,1013.296600211409,0.9007230428938742
93755865,41498.34,227.0,-960.0,-236.0,0.49,-0.98,-0.56,1014.3101103705908,1.2304877081872863
93938550,41681.025,220.0,-961.0,-237.0,0.419,-0.839,-0.349,1013.9477304082296,1.000641294370765
94121235,41863.71,230.0,-953.0,-236.0,0.28,-0.56,-0.769,1008.3674925343438,0.9916456020171723
94303920,42046.395,225.0,-960.0,-236.0,0.349,-0.49,-0.56,1013.8643893539214,0.8218886785933969
94486605,42229.08,238.0,-955.0,-236.0,0.28,-0.699,-0.56,1012.1091838334439,0.9384034313662755
94669290,42411.765,235.0,-957.0,-234.0,0.49,-0.699,-0.91,1012.8326614006877,1.2477183175701156
94851975,42594.45,208.0,-962.0,-234.0,0.419,-0.769,-0.349,1011.6639758338735,0.9427210616083636
95034660,42777.135,229.0,-957.0,-239.0,0.419,-0.699,-0.629,1012.6257946546691,1.0294673379957229
95217345,42959.82,219.0,-962.0,-241.0,0.419,-0.839,-0.699,1015.620992299785,1.1696508025902432
95400030,43142.505,235.0,-960.0,-237.0,0.28,-0.769,-0.07,1016.363124085088,0.8213775015180292
95582715,43325.19,248.0,-955.0,-237.0,0.419,-0.98,-1.049,1014.7403608805555,1.4954470903378694
95765400,43507.875,229.0,-964.0,-236.0,0.49,-1.19,-0.56,1018.5445498356956,1.4034956359034394
95948085,43690.56,243.0,-955.0,-235.0,0.419,-1.049,-0.209,1013.0641638119473,1.1487571544934987
96130770,43873.245,222.0,-958.0,-237.0,0.56,-0.91,-0.91,1011.5418923603708,1.4034956359034396
96323070,44065.545,221.0,-961.0,-239.0,0.28,-0.629,-0.49,1014.6344169206957,0.8450686362657178
96505755,44248.23,238.0,-957.0,-239.0,0.349,-0.91,-0.699,1014.6989701384347,1.1993756709221677
96688440,44430.915,224.0,-960.0,-241.0,0.349,-0.98,-1.049,1014.8187030203967,1.4773631916356926
96871125,44613.6,230.0,-958.0,-240.0,0.28,-0.699,-0.699,1014.0335300176223,1.027424936430881
97053810,44796.285,233.0,-957.0,-242.0,0.349,-0.839,-0.49,1014.2494762138159,1.0323865555110643
97246110,44988.585,228.0,-959.0,-238.0,0.49,-0.769,-0.56,1014.0557183902667,1.0700752310001387
97428795,45171.27,230.0,-958.0,-238.0,0.349,-0.699,-0.49,1013.5620355952565,0.9222266532691407
97611480,45353.955,239.0,-956.0,-238.0,0.49,-0.98,-0.91,1013.7558877757505,1.4242892964563063
97794165,45536.64,217.0,-961.0,-240.0,0.56,-0.769,-0.629,1014.0069033295582,1.1404393890075877
97976850,45719.325,231.0,-958.0,-237.0,0.419,-0.349,-0.07,1013.5551292357017,0.5497835937894109
98169150,45911.625,240.0,-955.0,-236.0,0.349,-0.769,-0.419,1012.5813547562487,0.9427210616083636
98351835,46094.31,231.0,-957.0,-236.0,0.49,-0.839,-0.98,1012.3764122103992,1.3800076086746766
98534520,46276.995,222.0,-960.0,-235.0,0.629,-0.699,-0.56,1012.9703845621549,1.0944596840450542
98717205,46459.68,235.0,-956.0,-238.0,0.49,-0.699,-0.56,1012.8203197013772,1.020931437462869
98899890,46642.365,232.0,-959.0,-238.0,0.419,-0.769,-0.839,1014.9625608858684,1.2127831628118853
99092190,46834.665,223.0,-959.0,-237.0,0.349,-0.769,-0.629,1012.7087439140633,1.052997150993297
99274875,47017.35,236.0,-956.0,-237.0,0.349,-0.629,-0.49,1012.8183450155313,0.8703688873115812
99457560,47200.035,229.0,-958.0,-236.0,0.56,-0.769,-0.769,1012.8677110067238,1.2232424126067571
99640245,47382.72,243.0,-956.0,-233.0,0.49,-0.419,-0.28,1013.545262926131,0.7028947289601765
99822930,47565.405,247.0,-954.0,-234.0,0.629,-1.12,-1.19,1012.8578380009704,1.7510399766995612
100015230,47757.705,219.0,-960.0,-234.0,0.699,-0.839,-0.91,1012.0854706989919,1.4214858423494763
100197915,47940.39,225.0,-959.0,-238.0,0.49,-0.629,-0.419,1013.3854153282452,0.9007230428938742
100380600,48123.075,233.0,-958.0,-239.0,0.49,-0.769,-0.699,1014.4821338988677,1.1489395110274518
100563285,48305.76,222.0,-960.0,-239.0,0.349,-0.839,-0.49,1013.9058141661877,1.0323865555110643
100745970,48488.445,230.0,-959.0,-237.0,0.349,-0.629,-0.419,1014.2731387550397,0.8324680174036717
100938270,48680.745,233.0,-958.0,-236.0,0.419,-0.839,-0.629,1013.7795618377794,1.1292134430655703
101120955,48863.43,227.0,-959.0,-237.0,0.49,-0.839,-0.56,1013.5970599799508,1.12143702453593
101303640,49046.115,229.0,-959.0,-237.0,0.49,-0.629,-0.629,1014.0468430994695,1.0155697908071113
101486325,49228.8,231.0,-958.0,-237.0,0.49,-0.699,-0.56,1013.5551292357017,1.020931437462869
101669010,49411.485,228.0,-959.0,-239.0,0.49,-0.839,-0.56,1014.2908852986899,1.12143702453593
101851695,49594.17,232.0,-958.0,-237.0,0.49,-0.769,-0.629,1013.7835074610358,1.107746360860644
102034380,49776.855,227.0,-959.0,-237.0,0.49,-0.839,-0.769,1013.5970599799508,1.2391053223999968
102217065,49959.54,220.0,-961.0,-240.0,0.28,-0.699,-0.56,1014.6531427044416,0.9384034313662755
102409365,50151.84,231.0,-958.0,-240.0,0.349,-0.699,-0.419,1014.2608145837046,0.8865455431053725
102592050,50334.525,231.0,-958.0,-239.0,0.419,-0.839,-0.699,1014.0246545326203,1.1696508025902432
102784350,50526.825,226.0,-962.0,-237.0,0.419,-0.839,-0.699,1016.2130682096151,1.1696508025902432
102967035,50709.51,232.0,-958.0,-238.0,0.349,-0.91,-0.49,1014.0177513239105,1.0908716698127237
103149720,50892.195,226.0,-960.0,-237.0,0.49,-0.91,-0.629,1014.3199692404759,1.2098929704730084
103332405,51074.88,229.0,-959.0,-238.0,0.49,-0.839,-0.49,1014.2810261461071,1.0881732398841646
103515090,51257.565,232.0,-958.0,-237.0,0.49,-0.839,-0.629,1013.7835074610358,1.1574376873076149
103697775,51440.25,227.0,-959.0,-238.0,0.419,-0.769,-0.699,1013.8313469211731,1.1205012271300732
103880460,51622.935,229.0,-958.0,-237.0,0.419,-0.699,-0.49,1013.1011795472356,0.9509269162243752
104063145,51805.62,229.0,-958.0,-237.0,0.419,-0.839,-0.699,1013.1011795472356,1.1696508025902432
104255445,51997.92,227.0,-959.0,-237.0,0.419,-0.839,-0.56,1013.5970599799508,1.0922829303802197
104438130,52180.605,228.0,-959.0,-237.0,0.49,-0.769,-0.49,1013.8214832996981,1.03516230611436
104630430,52372.905,227.0,-959.0,-237.0,0.419,-0.769,-0.699,1013.5970599799508,1.1205012271300732
104813115,52555.59,228.0,-958.0,-238.0,0.419,-0.769,-0.629,1013.1100631224625,1.0782221477970113
104995800,52738.275,231.0,-958.0,-237.0,0.349,-0.839,-0.629,1013.5551292357017,1.1051529305937706
105178485,52920.96,229.0,-959.0,-238.0,0.419,-0.769,-0.56,1014.2810261461071,1.039481601568782
105361170,53103.645,229.0,-959.0,-237.0,0.419,-0.769,-0.699,1014.0468430994695,1.1205012271300732
105543855,53286.33,228.0,-960.0,-238.0,0.49,-0.839,-0.56,1015.0014778314364,1.12143702453593
105726540,53469.015,239.0,-958.0,-236.0,0.839,-1.19,-0.769,1015.1753543107712,1.646627462421297
105909225,53651.7,199.0,-966.0,-242.0,0.56,-0.98,-0.839,1015.5397579612528,1.4063857934436055
106101525,53844.0,217.0,-962.0,-242.0,0.349,-0.49,0.07,1015.4294657926763,0.6056409827612395
106284210,54026.685,239.0,-955.0,-241.0,0.419,-0.839,-0.56,1013.5220767205814,1.0922829303802197
106466895,54209.37,220.0,-959.0,-241.0,0.209,-0.91,-0.49,1012.9965449101986,1.0544576805163874
106649580,54392.055,234.0,-958.0,-234.0,0.419,-0.629,-0.419,1013.54624956141,0.8641545000750733
106832265,54574.74,238.0,-957.0,-234.0,0.56,-0.769,-0.98,1013.5329299041052,1.3657821934701009
107014950,54757.425,226.0,-960.0,-240.0,0.56,-0.769,-0.629,1015.0251228417945,1.1404393890075877
107197635,54940.11,230.0,-958.0,-239.0,0.419,-0.769,-0.419,1013.7973170215041,0.9708156364624542
107380320,55122.795,227.0,-958.0,-236.0,0.49,-0.699,-0.56,1012.4174040384727,1.020931437462869
107563005,55305.48,228.0,-959.0,-237.0,0.419,-0.699,-0.49,1013.8214832996981,0.9509269162243752
107745690,55488.165,234.0,-958.0,-238.0,0.49,-0.839,-0.699,1014.4772052638739,1.1969218855046473
107928375,55670.85,227.0,-959.0,-237.0,0.419,-0.769,-0.629,1013.5970599799508,1.0782221477970113
108111060,55853.535,228.0,-959.0,-238.0,0.49,-0.699,-0.56,1014.0557183902667,1.020931437462869
108293745,56036.22,226.0,-959.0,-237.0,0.419,-0.839,-0.56,1013.3735737624107,1.0922829303802197
108476430,56218.905,226.0,-960.0,-237.0,0.49,-0.769,-0.419,1014.3199692404759,1.0035048579852517
108659115,56401.59,228.0,-959.0,-237.0,0.349,-0.699,-0.419,1013.8214832996981,0.8865455431053725
108841800,56584.275,233.0,-959.0,-236.0,0.419,-0.839,-0.56,1014.7245931778731,1.0922829303802197
109024485,56766.96,226.0,-959.0,-238.0,0.349,-0.839,-0.839,1013.6079123605932,1.236787370569412
109207170,56949.645,223.0,-960.0,-238.0,0.419,-0.629,-0.419,1013.8900334848943,0.8641545000750733
109389855,57132.33,235.0,-960.0,-237.0,0.49,-0.699,-0.56,1016.363124085088,1.020931437462869
109582155,57324.63,237.0,-955.0,-242.0,0.49,-0.98,-1.47,1013.2906789268319,1.8334121195192312
109764840,57507.315,212.0,-963.0,-245.0,0.49,-0.769,-0.629,1016.0403535293271,1.107746360860644
109947525,57690.0,230.0,-958.0,-243.0,0.14,-0.419,0.0,1014.747751906847,0.4417703023065267
110130210,57872.685,240.0,-956.0,-239.0,0.28,-0.699,-0.419,1014.2272920800347,0.861720372278618
110312895,58055.37,228.0,-958.0,-232.0,0.349,-0.91,-0.769,1011.7173518330108,1.2414757347608532
110495580,58238.055,224.0,-959.0,-232.0,0.49,-0.56,-0.839,1011.7712191992813,1.12143702453593
110678265,58420.74,221.0,-959.0,-238.0,0.56,-0.629,-0.699,1012.5048148033668,1.0944596840450542
110860950,58603.425,220.0,-958.0,-243.0,0.28,-0.419,-0.28,1012.5280243035252,0.5765075888485771
111053250,58795.725,237.0,-958.0,-238.0,0.28,-0.91,-0.209,1015.1733842058705,0.9747722810995397
111235935,58978.41,231.0,-957.0,-235.0,0.419,-0.98,-0.49,1012.1437644919816,1.1730562646352476
111418620,59161.095,223.0,-960.0,-234.0,0.419,-0.769,-0.629,1012.9585381445778,1.0782221477970113
111601305,59343.78,215.0,-961.0,-235.0,0.419,-0.56,-0.349,1012.408514385374,0.7816405823650663
111783990,59526.465,239.0,-957.0,-239.0,0.209,-0.769,-0.419,1014.9339880011902,0.900334937675974
111966675,59709.15,227.0,-958.0,-236.0,0.419,-0.98,-0.839,1012.4174040384727,1.3564225005506212
112149360,59891.835,218.0,-961.0,-236.0,0.349,-0.699,-0.209,1013.2822903811159,0.8087539798974716
112332045,60074.52,238.0,-956.0,-237.0,0.419,-0.839,-0.56,1013.2862379406916,1.0922829303802197
112514730,60257.205,226.0,-959.0,-236.0,0.419,-0.839,-0.98,1013.1401679925636,1.3564225005506212
112697415,60439.89,225.0,-959.0,-238.0,0.419,-0.839,-0.419,1013.3854153282452,1.0271528610679133
112880100,60622.575,230.0,-958.0,-238.0,0.49,-0.769,-0.419,1013.5620355952565,1.0035048579852517
113062785,60805.26,235.0,-958.0,-238.0,0.349,-0.839,-0.769,1014.7083324778604,1.190412953558554
113245470,60987.945,231.0,-958.0,-237.0,0.349,-0.839,-0.699,1013.5551292357017,1.1464392700880408
113428155,61170.63,236.0,-954.0,-236.0,0.49,-0.699,-0.91,1010.6967893488136,1.2477183175701156
113610840,61353.315,229.0,-958.0,-238.0,0.629,-0.699,-0.91,1013.3355811378578,1.3085648627408577
113793525,61536.0,225.0,-960.0,-240.0,0.419,-0.769,-0.419,1014.8029365349709,0.9708156364624542
113985825,61728.3,232.0,-959.0,-238.0,0.49,-0.769,-0.49,1014.9625608858684,1.03516230611436
114168510,61910.985,225.0,-959.0,-238.0,0.49,-0.769,-0.769,1013.3854153282452,1.192821025971625
114351195,62093.67,224.0,-960.0,-238.0,0.49,-0.56,-0.349,1014.1104476337871,0.8218886785933969
114533880,62276.355,232.0,-957.0,-237.0,0.49,-0.839,-0.839,1012.8385853629393,1.283721932507192
114716565,62459.04,220.0,-960.0,-237.0,0.49,-0.769,-0.769,1013.0,1.192821025971625
114899250,62641.725,222.0,-960.0,-240.0,0.349,-0.629,-0.349,1014.1420018912539,0.7995267350126573
115081935,62824.41,232.0,-958.0,-239.0,0.28,-0.699,-0.349,1014.2529270354609,0.8299409617557142
115264620,63007.095,232.0,-957.0,-235.0,0.49,-0.839,-0.56,1012.3724611031258,1.12143702453593
115447305,63189.78,228.0,-959.0,-235.0,0.49,-0.839,-0.49,1013.3558111542065,1.0881732398841646
115629990,63372.465,232.0,-957.0,-236.0,0.56,-0.769,-0.769,1012.6050562781128,1.2232424126067571
115812675,63555.15,223.0,-959.0,-238.0,0.49,-0.769,-0.629,1012.9432363168235,1.107746360860644
116004975,63747.45,223.0,-958.0,-238.0,0.49,-0.699,-0.49,1011.9965414960666,0.9842768919364103
116187660,63930.135,226.0,-959.0,-238.0,0.419,-0.699,-0.56,1013.6079123605932,0.9888184868821982
116379960,64122.435,234.0,-957.0,-238.0,0.419,-0.699,-0.56,1013.5329299041052,0.9888184868821982
116562645,64305.12,231.0,-958.0,-236.0,0.49,-0.839,-0.839,1013.3217652848477,1.283721932507192
116745330,64487.805,222.0,-958.0,-236.0,0.49,-0.56,-0.56,1011.308063846027,0.931289428695505
116928015,64670.49,230.0,-957.0,-237.0,0.49,-0.629,-0.49,1012.382338842396,0.9358637721378043
117110700,64853.175,229.0,-958.0,-238.0,0.419,-0.91,-0.91,1013.3355811378578,1.3534256536655422
117303000,65045.475,226.0,-959.0,-237.0,0.419,-0.699,-0.699,1013.3735737624107,1.0736680120037105
117485685,65228.16,233.0,-957.0,-236.0,0.49,-0.699,-0.839,1012.8346360586214,1.1969218855046473
117668370,65410.845,223.0,-960.0,-242.0,0.419,-0.699,-0.56,1014.8364400237114,0.9888184868821982
117851055,65593.53,231.0,-958.0,-239.0,0.419,-0.629,-0.349,1014.0246545326203,0.8324680174036717
118033740,65776.215,233.0,-958.0,-236.0,0.349,-0.91,-0.629,1013.7795618377794,1.1599749997305977
118216425,65958.9,228.0,-958.0,-237.0,0.419,-0.839,-0.56,1012.8756093420357,1.0922829303802197
118399110,66141.585,229.0,-959.0,-236.0,0.49,-0.699,-0.49,1013.813592333423,0.9842768919364103
118581795,66324.27,231.0,-958.0,-237.0,0.419,-0.769,-0.769,1013.5551292357017,1.1654539887957827
118774095,66516.57,227.0,-958.0,-239.0,0.349,-0.839,-0.769,1013.1209207197332,1.190412953558554
118956780,66699.255,233.0,-957.0,-238.0,0.49,-0.839,-0.839,1013.3025214613847,1.283721932507192
119149080,66891.555,221.0,-961.0,-240.0,0.49,-0.91,-0.49,1014.8704350802618,1.1438094246857735
119331765,67074.24,229.0,-959.0,-241.0,0.349,-0.56,-0.14,1014.9891625037186,0.6745376194105115
119514450,67256.925,242.0,-955.0,-237.0,0.28,-0.91,-0.839,1013.2906789268319,1.2690236404417374
119697135,67439.61,230.0,-969.0,-231.0,0.419,-0.98,-0.49,1022.3609929961139,1.1730562646352476
119879820,67622.295,227.0,-959.0,-234.0,0.349,-0.629,0.07,1012.8997976108002,0.722732315591326
120062505,67804.98,246.0,-955.0,-237.0,0.419,-0.91,-0.769,1014.2534200090232,1.262941803884882
120245190,67987.665,233.0,-957.0,-236.0,0.49,-0.98,-0.839,1012.8346360586214,1.3800076086746766
120427875,68170.35,223.0,-954.0,-237.0,0.49,-0.699,-0.699,1007.9751981075725,1.1033140985231722
120620175,68362.65,229.0,-959.0,-237.0,0.49,-0.629,-0.349,1014.0468430994695,0.8703688873115812
120802860,68545.335,242.0,-955.0,-238.0,0.419,-0.769,-0.699,1013.5250366912502,1.1205012271300732
120985545,68728.02,234.0,-957.0,-236.0,0.49,-0.839,-0.839,1013.065150915774,1.283721932507192
121168230,68910.705,235.0,-957.0,-236.0,0.699,-0.839,-1.049,1013.296600211409,1.5142400734361774
121350915,69093.39,212.0,-963.0,-240.0,0.769,-0.91,-0.49,1014.8462937804917,1.288239496367038
121533600,69276.075,230.0,-958.0,-245.0,0.28,-0.56,0.14,1015.2285456979625,0.6415605972938176
121716285,69458.76,243.0,-954.0,-235.0,0.349,-1.049,-0.91,1012.1215342042674,1.4318875654184584
121898970,69641.445,231.0,-957.0,-236.0,0.49,-0.629,-0.629,1012.3764122103992,1.0155697908071113
122081655,69824.13,236.0,-957.0,-232.0,0.629,-0.769,-0.699,1012.6050562781128,1.2147440059535177
122264340,70006.815,223.0,-960.0,-238.0,0.629,-0.769,-0.769,1013.8900334848943,1.256329176609379
122447025,70189.5,227.0,-959.0,-241.0,0.419,-0.699,-0.49,1014.5397971494267,0.9509269162243752
122629710,70372.185,216.0,-961.0,-240.0,0.209,-0.56,-0.209,1013.7933714519936,0.6332156030926591
122812395,70554.87,245.0,-955.0,-236.0,0.28,-0.56,-0.14,1013.7780822250992,0.6415605972938176
122995080,70737.555,240.0,-956.0,-231.0,0.56,-1.12,-1.399,1012.3719672136324,1.8775518634647619
123177765,70920.24,215.0,-961.0,-236.0,0.629,-0.699,-0.28,1012.6411012792242,0.9811432107495827
123360450,71102.925,234.0,-957.0,-237.0,0.56,-0.839,-0.56,1013.2985739652454,1.1537421722378012
123543135,71285.61,222.0,-961.0,-242.0,0.56,-0.91,-0.839,1015.5633904390213,1.3585363447475374
123725820,71468.295,232.0,-958.0,-239.0,0.28,-0.839,-0.14,1014.2529270354609,0.895500418760371
123908505,71650.98,223.0,-958.0,-239.0,0.49,-0.91,-0.839,1012.2321868030082,1.3312103515222529
124100805,71843.28,220.0,-961.0,-240.0,0.419,-0.629,-0.769,1014.6531427044416,1.0782221477970113
124283490,72025.965,231.0,-959.0,-241.0,0.419,-0.769,-0.349,1015.4422681767783,0.9427210616083636
124466175,72208.65,227.0,-960.0,-240.0,0.349,-0.839,-0.839,1015.248245504517,1.236787370569412
124648860,72391.335,223.0,-960.0,-239.0,0.349,-0.629,-0.349,1014.1252388142207,0.7995267350126573
124831545,72574.02,235.0,-957.0,-238.0,0.349,-0.769,-0.419,1013.7642724026133,0.9427210616083636
125023845,72766.32,226.0,-958.0,-238.0,0.419,-0.699,-0.56,1012.6618389176123,0.9888184868821982
125206530,72949.005,226.0,-959.0,-236.0,0.349,-0.769,-0.56,1013.1401679925636,1.0132926526922021
125389215,73131.69,228.0,-957.0,-235.0,0.49,-0.699,-0.699,1011.4632964176209,1.1033140985231722
125571900,73314.375,223.0,-959.0,-237.0,0.349,-0.629,-0.49,1012.7087439140633,0.8703688873115812
125754585,73497.06,226.0,-959.0,-237.0,0.349,-0.629,-0.419,1013.3735737624107,0.8324680174036717
125937270,73679.745,230.0,-958.0,-236.0,0.349,-0.839,-0.699,1013.0942700459815,1.1464392700880408
126119955,73862.43,225.0,-959.0,-237.0,0.349,-0.769,-0.49,1013.1510252672106,0.9763513711774056
126302640,74045.115,230.0,-958.0,-237.0,0.56,-1.049,-0.49,1013.3276863877745,1.2861185792919718
126485325,74227.8,221.0,-960.0,-240.0,0.419,-0.91,-0.839,1013.923567139062,1.3067448105885096
126668010,74410.485,224.0,-961.0,-239.0,0.349,-0.699,-0.349,1015.2920762027053,0.8556886115871823
126850695,74593.17,239.0,-956.0,-237.0,0.349,-0.769,-0.56,1013.5215833912961,1.0132926526922021
127033380,74775.855,229.0,-959.0,-237.0,0.56,-0.91,-0.91,1014.0468430994695,1.4034956359034396
127216065,74958.54,225.0,-960.0,-238.0,0.419,-0.629,-0.769,1014.3317997578505,1.0782221477970113
127398750,75141.225,228.0,-959.0,-238.0,0.419,-0.699,-0.56,1014.0557183902667,0.9888184868821982
127581435,75323.91,229.0,-959.0,-241.0,0.419,-0.769,-0.56,1014.9891625037186,1.039481601568782
127764120,75506.595,231.0,-958.0,-239.0,0.349,-0.699,-0.28,1014.0246545326203,0.8299409617557142
127946805,75689.28,234.0,-958.0,-235.0,0.49,-0.769,-0.769,1013.7775890203926,1.192821025971625
128129490,75871.965,229.0,-958.0,-237.0,0.56,-0.839,-0.839,1013.1011795472356,1.3120373470294204
128312175,76054.65,222.0,-960.0,-239.0,0.629,-0.699,-0.629,1013.9058141661877,1.1313191415334578
128504475,76246.95,224.0,-960.0,-240.0,0.49,-0.629,-0.419,1014.5816871992122,0.9007230428938742
128687160,76429.635,236.0,-957.0,-241.0,0.419,-0.839,-0.629,1014.7048832049642,1.1292134430655703
128869845,76612.32,228.0,-960.0,-239.0,0.349,-0.839,-0.629,1015.2364256664553,1.1051529305937706
129052530,76795.005,230.0,-960.0,-236.0,0.419,-0.769,-0.56,1014.9857141851801,1.039481601568782
129235215,76977.69,232.0,-958.0,-237.0,0.419,-0.839,-0.629,1013.7835074610358,1.1292134430655703
129417900,77160.375,232.0,-957.0,-239.0,0.49,-0.839,-0.769,1013.3084426767597,1.2391053223999968
129600585,77343.06,225.0,-958.0,-240.0,0.349,-0.629,-1.12,1012.9111510887814,1.3311055555439621
129783270,77525.745,214.0,-963.0,-236.0,0.419,-0.629,-0.419,1014.3278562673905,0.8641545000750733
129965955,77708.43,226.0,-959.0,-240.0,0.349,-0.56,-0.07,1014.079385452638,0.6635518065682589
130148640,77891.115,236.0,-957.0,-238.0,0.349,-0.839,-0.629,1013.9965483175966,1.1051529305937706
130331325,78073.8,225.0,-960.0,-236.0,0.419,-0.91,-0.629,1013.8643893539214,1.1829209610113434
130514010,78256.485,231.0,-958.0,-235.0,0.49,-0.839,-0.49,1013.0893346590912,1.0881732398841646
130696695,78439.17,230.0,-958.0,-239.0,0.49,-0.839,-0.769,1013.7973170215041,1.2391053223999968
130879380,78621.855,230.0,-959.0,-239.0,0.49,-0.839,-0.629,1014.7423318261636,1.1574376873076149
131062065,78804.54,227.0,-956.0,-238.0,0.349,-0.769,-0.629,1010.9940652644801,1.052997150993297
131244750,78987.225,232.0,-958.0,-237.0,0.49,-0.769,-0.699,1013.7835074610358,1.1489395110274518
131437050,79179.525,223.0,-959.0,-238.0,0.419,-0.699,-0.56,1012.9432363168235,0.9888184868821982
131619735,79362.21,225.0,-959.0,-240.0,0.349,-0.699,-0.56,1013.8569918879092,0.9612502275682435
131802420,79544.895,233.0,-958.0,-238.0,0.349,-0.839,-0.49,1014.2470113340241,1.0323865555110643
131985105,79727.58,227.0,-957.0,-238.0,0.49,-0.839,-0.699,1011.9397215249533,1.1969218855046473
132167790,79910.265,230.0,-961.0,-238.0,0.349,-0.699,-0.349,1016.3980519461851,0.8556886115871823
132350475,80092.95,237.0,-957.0,-236.0,0.56,-0.91,-0.699,1013.7622995554727,1.276832408736558
132533160,80275.635,225.0,-959.0,-238.0,0.49,-0.91,-0.769,1013.3854153282452,1.288239496367038
132715845,80458.32,226.0,-958.0,-239.0,0.419,-0.699,-0.349,1012.8973294465733,0.8865455431053725
132908145,80650.62,234.0,-957.0,-238.0,0.419,-0.769,-0.769,1013.5329299041052,1.1654539887957827
133090830,80833.305,219.0,-959.0,-238.0,0.349,-0.699,-0.769,1012.0701556710385,1.0962495153932794
133273515,81015.99,222.0,-960.0,-238.0,0.349,-0.56,-0.349,1013.6705579230364,0.7464596439192142
133456200,81198.675,232.0,-960.0,-235.0,0.419,-0.699,-0.49,1015.2088455091396,0.9509269162243752
133638885,81381.36,228.0,-958.0,-238.0,0.419,-0.769,-0.629,1013.1100631224625,1.0782221477970113
133831185,81573.66,231.0,-958.0,-237.0,0.349,-0.769,-0.699,1013.5551292357017,1.0962495153932794
134013870,81756.345,229.0,-959.0,-235.0,0.49,-0.699,-0.769,1013.581274491592,1.1489395110274518
134196555,81939.03,229.0,-958.0,-238.0,0.49,-0.769,-0.699,1013.3355811378578,1.1489395110274518
134379240,82121.715,228.0,-959.0,-240.0,0.49,-0.699,-0.56,1014.5269833769825,1.020931437462869
134561925,82304.4,227.0,-958.0,-238.0,0.419,-0.769,-0.49,1012.8854821745645,1.0035048579852517
134744610,82487.085,238.0,-958.0,-236.0,0.349,-0.839,-0.699,1014.9403923383875,1.1464392700880408
134927295,82669.77,232.0,-957.0,-235.0,0.56,-0.839,-0.769,1012.3724611031258,1.2684171238200783
135109980,82852.455,222.0,-960.0,-237.0,0.56,-0.769,-0.629,1013.4362338104949,1.1404393890075877
135292665,83035.14,230.0,-958.0,-239.0,0.49,-0.699,-0.349,1013.7973170215041,0.9222266532691407
135475350,83217.825,235.0,-957.0,-239.0,0.419,-0.91,-0.699,1013.9995069032332,1.221581761487949
135658035,83400.51,227.0,-960.0,-237.0,0.419,-0.91,-0.699,1014.5432469835872,1.221581761487949
135850335,83592.81,230.0,-959.0,-237.0,0.49,-0.769,-0.56,1014.2731387550397,1.0700752310001387
136033020,83775.495,231.0,-958.0,-237.0,0.49,-0.769,-0.699,1013.5551292357017,1.1489395110274518
136225320,83967.795,232.0,-958.0,-239.0,0.49,-0.839,-0.699,1014.2529270354609,1.1969218855046473
136408005,84150.48,228.0,-960.0,-238.0,0.49,-0.629,-0.349,1015.0014778314364,0.8703688873115812
136590690,84333.165,234.0,-960.0,-235.0,0.419,-0.769,-0.419,1015.6677606382906,0.9708156364624542
136773375,84515.85,232.0,-957.0,-235.0,0.49,-0.839,-0.56,1012.3724611031258,1.12143702453593
136956060,84698.535,230.0,-959.0,-236.0,0.56,-0.91,-0.699,1014.0399400418112,1.276832408736558
137138745,84881.22,234.0,-957.0,-235.0,0.56,-0.91,-0.419,1012.8326614006877,1.147719913567766
137321430,85063.905,227.0,-959.0,-238.0,0.629,-0.91,-0.98,1013.8313469211731,1.477883960262104
137504115,85246.59,220.0,-960.0,-240.0,0.419,-0.769,-0.349,1013.7060717979349,0.9427210616083636
137696415,85438.89,231.0,-958.0,-240.0,0.419,-0.699,-0.419,1014.2608145837046,0.9163640106420592
137879100,85621.575,231.0,-957.0,-240.0,0.28,-0.769,-0.839,1013.3163375767707,1.1720418081280206
138071400,85813.875,225.0,-960.0,-238.0,0.56,-0.699,-0.28,1014.3317997578505,0.9384034313662755
138254085,85996.56,231.0,-957.0,-236.0,0.419,-0.769,-0.56,1012.3764122103992,1.039481601568782
138436770,86179.245,200.0,-963.0,-246.0,0.209,-0.49,-1.19,1013.8466353448139,1.303794845825063
138619455,86361.93,226.0,-960.0,-240.0,0.14,-0.28,0.209,1015.0251228417945,0.37640536659298574
138802140,86544.615,247.0,-955.0,-238.0,0.209,-0.91,-0.629,1014.7305060950912,1.1257983833706637
138984825,86727.3,235.0,-958.0,-232.0,0.419,-0.91,-0.769,1013.317817863675,1.262941803884882
139167510,86909.985,238.0,-956.0,-231.0,0.629,-0.98,-0.56,1011.8996985867719,1.2921458895960625
139350195,87092.67,223.0,-962.0,-235.0,0.699,-0.91,-1.049,1015.0852180974758,1.5547031871067867
139532880,87275.355,213.0,-963.0,-243.0,0.49,-0.56,0.209,1015.7691666909367,0.772904263152947
139715565,87458.04,250.0,-955.0,-237.0,0.49,-0.839,-0.839,1015.2310081946866,1.283721932507192
139898250,87640.725,220.0,-959.0,-239.0,0.49,-1.12,-1.47,1012.5225923405363,1.9119100397246729
140080935,87823.41,211.0,-963.0,-240.0,0.349,-0.349,0.209,1014.6378664331428,0.5359878729971416
140263620,88006.095,244.0,-955.0,-237.0,0.49,-0.629,-0.349,1013.7701909209997,0.8703688873115812
140446305,88188.78,228.0,-959.0,-240.0,0.349,-0.98,-1.12,1014.5269833769825,1.5285944524300747
140628990,88371.465,230.0,-958.0,-237.0,0.349,-0.839,-0.49,1013.3276863877745,1.0323865555110643
140811675,88554.15,232.0,-958.0,-235.0,0.629,-0.839,-0.769,1013.317817863675,1.300354951542078
141003975,88746.45,226.0,-961.0,-237.0,0.629,-0.769,-0.699,1015.2664674852607,1.2147440059535177
141186660,88929.135,231.0,-958.0,-243.0,0.419,-0.769,-0.49,1014.9748765363604,1.0035048579852517
141369345,89111.82,232.0,-957.0,-237.0,0.349,-0.769,-0.629,1012.8385853629393,1.052997150993297
141552030,89294.505,229.0,-959.0,-236.0,0.49,-0.769,-0.699,1013.813592333423,1.1489395110274518
141734715,89477.19,231.0,-958.0,-238.0,0.49,-0.769,-0.49,1013.7894258671275,1.03516230611436
141917400,89659.875,231.0,-958.0,-236.0,0.56,-0.769,-0.419,1013.3217652848477,1.039481601568782
142100085,89842.56,235.0,-957.0,-235.0,0.629,-0.91,-0.699,1013.0641638119473,1.3085648627408577
142282770,90025.245,230.0,-960.0,-237.0,0.629,-1.049,-0.49,1015.218695651336,1.3176274131938817
142465455,90207.93,226.0,-958.0,-238.0,0.56,-0.839,-0.349,1012.6618389176123,1.0673902753913396
142648140,90390.615,227.0,-959.0,-238.0,0.349,-0.699,-0.56,1013.8313469211731,0.9612502275682435
142830825,90573.3,234.0,-958.0,-237.0,0.419,-0.839,-0.56,1014.2430675138972,1.0922829303802197
143023125,90765.6,226.0,-958.0,-237.0,0.49,-1.049,-0.14,1012.4272813392574,1.16623368155786
143205810,90948.285,232.0,-957.0,-237.0,0.49,-0.98,-0.629,1012.8385853629393,1.263384739499413
143398110,91140.585,218.0,-960.0,-237.0,0.419,-0.91,-0.629,1012.5675286122896,1.1829209610113434
143580795,91323.27,220.0,-961.0,-238.0,0.419,-0.49,-0.28,1014.1819363408126,0.7028947289601765
143763480,91505.955,239.0,-956.0,-237.0,0.419,-0.769,-0.769,1013.5215833912961,1.1654539887957827
143946165,91688.64,223.0,-959.0,-238.0,0.49,-0.839,-0.839,1012.9432363168235,1.283721932507192
144128850,91871.325,226.0,-959.0,-237.0,0.49,-0.769,-0.28,1013.3735737624107,0.9538663428384503
144321150,92063.625,231.0,-959.0,-238.0,0.56,-0.769,-0.629,1014.7344480207618,1.1404393890075877
144503835,92246.31,227.0,-959.0,-238.0,0.49,-0.839,-0.769,1013.8313469211731,1.2391053223999968
144686520,92428.995,225.0,-960.0,-238.0,0.419,-0.769,-0.349,1014.3317997578505,0.9427210616083636
144869205,92611.68,234.0,-957.0,-235.0,0.419,-0.839,-0.699,1012.8326614006877,1.1696508025902432
145051890,92794.365,225.0,-959.0,-237.0,0.49,-0.769,-0.699,1013.1510252672106,1.1489395110274518
145244190,92986.665,226.0,-959.0,-236.0,0.49,-0.699,-0.419,1013.1401679925636,0.9509269162243752
145426875,93169.35,236.0,-957.0,-238.0,0.419,-0.98,-0.629,1013.9965483175966,1.2375790883818294
145609560,93352.035,229.0,-959.0,-237.0,0.49,-0.91,-0.769,1014.0468430994695,1.288239496367038
145792245,93534.72,229.0,-958.0,-237.0,0.419,-0.56,-0.349,1013.1011795472356,0.7816405823650663
145974930,93717.405,231.0,-958.0,-237.0,0.56,-0.699,-0.699,1013.5551292357017,1.1361346751155867
146167230,93909.705,225.0,-959.0,-237.0,0.49,-0.629,-0.839,1013.1510252672106,1.1574376873076149
146349915,94092.39,229.0,-958.0,-238.0,0.419,-0.699,-0.419,1013.3355811378578,0.9163640106420592
146532600,94275.075,232.0,-957.0,-236.0,0.49,-0.699,-0.629,1012.6050562781128,1.0603499422360525
146715285,94457.76,234.0,-958.0,-236.0,0.419,-0.839,-0.769,1014.0098618849819,1.2127831628118853
146897970,94640.445,229.0,-960.0,-237.0,0.49,-0.839,-0.49,1014.9926108105418,1.0881732398841646
147090270,94832.745,231.0,-957.0,-236.0,0.419,-0.769,-0.56,1012.3764122103992,1.039481601568782
147272955,95015.43,232.0,-958.0,-236.0,0.49,-0.839,-0.91,1013.5501960929217,1.3312103515222529
147455640,95198.115,225.0,-958.0,-239.0,0.49,-0.769,-0.419,1012.674676290466,1.0035048579852517
147638325,95380.8,232.0,-957.0,-237.0,0.419,-0.769,-0.629,1012.8385853629393,1.0782221477970113
147821010,95563.485,229.0,-959.0,-240.0,0.419,-0.839,-0.56,1014.7521864967821,1.0922829303802197
148003695,95746.17,229.0,-956.0,-237.0,0.349,-0.839,-0.07,1011.2101660881382,0.9113846608320769
148186380,95928.855,234.0,-956.0,-233.0,0.56,-0.98,-1.12,1011.4252320364566,1.5900943368240767
148369065,96111.54,214.0,-963.0,-238.0,0.56,-0.629,-0.49,1014.7950532003987,0.9743413159668433
148561365,96303.84,230.0,-958.0,-238.0,0.49,-0.629,-0.629,1013.5620355952565,1.0155697908071113
148744050,96486.525,230.0,-959.0,-242.0,0.349,-0.699,-0.629,1015.4531008372568,1.0030169490093375
148936350,96678.825,229.0,-957.0,-241.0,0.349,-0.91,-0.28,1013.099698943791,1.014051773826169
149119035,96861.51,228.0,-958.0,-237.0,0.209,-0.699,-0.629,1012.8756093420357,0.9632875998371411
149301720,97044.195,236.0,-960.0,-233.0,0.419,-0.699,-0.839,1015.6697297842444,1.1696508025902432
149484405,97226.88,232.0,-959.0,-237.0,0.49,-0.699,-0.56,1014.7285351265135,1.020931437462869
149667090,97409.565,233.0,-958.0,-237.0,0.419,-0.699,-0.209,1014.0128204317734,0.8413340596932944
149849775,97592.25,239.0,-957.0,-236.0,0.49,-0.98,-0.98,1014.2317289456093,1.47
150032460,97774.935,218.0,-961.0,-236.0,0.629,-0.839,-0.839,1013.2822903811159,1.3429381966419751
150215145,97957.62,229.0,-958.0,-240.0,0.349,-0.56,-0.14,1013.8071808780998,0.6745376194105115
150397830,98140.305,230.0,-958.0,-237.0,0.419,-0.98,-0.839,1013.3276863877745,1.3564225005506212
150580515,98322.99,221.0,-960.0,-236.0,0.349,-0.56,0.07,1012.984205207564,0.6635518065682589
150763200,98505.675,247.0,-953.0,-231.0,0.419,-0.769,-0.699,1011.2264830392843,1.1205012271300732
150945885,98688.36,221.0,-960.0,-236.0,0.629,-0.839,-1.19,1012.984205207564,1.5860838565473139
151128570,98871.045,230.0,-959.0,-238.0,0.629,-0.49,-0.56,1014.5072695648859,0.9743413159668433
151320870,99063.345,230.0,-958.0,-239.0,0.699,-0.839,-0.349,1013.7973170215041,1.1464392700880408
151503555,99246.03,227.0,-961.0,-242.0,0.49,-1.049,-0.769,1016.6680874307012,1.3899143858525964
151686240,99428.715,216.0,-962.0,-241.0,0.349,-0.839,-0.14,1014.978324891719,0.9194139437707043
151868925,99611.4,238.0,-956.0,-236.0,0.419,-0.839,-0.419,1013.0528120488092,1.0271528610679133
152051610,99794.085,232.0,-958.0,-240.0,0.49,-1.19,-1.049,1014.4890339476322,1.6603014786477786
152234295,99976.77,217.0,-962.0,-242.0,0.28,-0.91,-0.209,1015.4294657926763,0.9747722810995397
152416980,100159.455,232.0,-956.0,-237.0,0.349,-0.769,-0.49,1011.8937691279654,0.9763513711774056
152599665,100342.14,231.0,-956.0,-241.0,0.349,-0.769,-0.98,1012.6095002517012,1.2936622434004943
152782350,100524.825,231.0,-959.0,-240.0,0.349,-0.91,-0.91,1015.2053979367919,1.3334170390391749
152965035,100707.51,229.0,-959.0,-240.0,0.349,-0.98,-0.49,1014.7521864967821,1.149913475005837
153147720,100890.195,228.0,-958.0,-241.0,0.49,-0.91,-0.839,1013.8190173793348,1.3312103515222529
153340020,101082.495,219.0,-962.0,-243.0,0.28,-0.769,-0.56,1016.0974362727228,0.9916456020171723
153522705,101265.18,224.0,-960.0,-242.0,0.28,-0.56,-0.28,1015.0566486654822,0.6858571279792899
153715005,101457.48,238.0,-959.0,-236.0,0.28,-0.56,0.0,1015.8843438108494,0.6260990336999411
153897690,101640.165,242.0,-955.0,-235.0,0.49,-0.98,-1.049,1012.8247627304538,1.516872110627656
154080375,101822.85,222.0,-961.0,-235.0,0.629,-0.839,-0.98,1013.9181426525516,1.4352567714524114
154263060,102005.535,219.0,-961.0,-239.0,0.56,-0.49,-0.28,1014.2006704789738,0.7950471684120384
154445745,102188.22,234.0,-958.0,-241.0,0.349,-0.629,-0.209,1015.1852047779262,0.7490814374952832
154628430,102370.905,232.0,-957.0,-238.0,0.419,-0.839,-0.91,1013.073047711763,1.3067448105885096
154811115,102553.59,225.0,-960.0,-235.0,0.49,-0.699,-0.839,1013.6320831544352,1.1969218855046473
154993800,102736.275,219.0,-960.0,-239.0,0.49,-0.629,-0.349,1013.2531766542852,0.8703688873115812
155186100,102928.575,227.0,-959.0,-240.0,0.349,-0.699,-0.07,1014.3027161552906,0.7844118816030261
155368785,103111.26,234.0,-957.0,-239.0,0.419,-1.049,-0.56,1013.7682180853767,1.2607783310320653
155561085,103303.56,224.0,-961.0,-239.0,0.349,-0.91,-0.769,1015.2920762027053,1.2414757347608532
155743770,103486.245,228.0,-958.0,-236.0,0.349,-0.769,-0.349,1012.642088795444,0.9137630984013306
155926455,103668.93,234.0,-957.0,-237.0,0.49,-0.839,-0.629,1013.2985739652454,1.1574376873076149
156109140,103851.615,231.0,-958.0,-239.0,0.49,-0.91,-0.91,1014.0246545326203,1.37706209010342
156291825,104034.3,225.0,-960.0,-240.0,0.419,-0.769,-0.419,1014.8029365349709,0.9708156364624542
156474510,104216.985,232.0,-957.0,-238.0,0.49,-0.839,-0.56,1013.073047711763,1.12143702453593
156657195,104399.67,228.0,-959.0,-240.0,0.419,-0.91,-0.769,1014.5269833769825,1.262941803884882
156839880,104582.355,226.0,-959.0,-237.0,0.419,-0.699,-0.49,1013.3735737624107,0.9509269162243752
157032180,104774.655,231.0,-957.0,-237.0,0.419,-0.839,-0.699,1012.6099940253405,1.1696508025902432
157214865,104957.34,228.0,-957.0,-237.0,0.419,-0.56,-0.419,1011.9298394651677,0.8153048509606698
157397550,105140.025,238.0,-956.0,-238.0,0.49,-0.699,-0.91,1013.5205967320053,1.2477183175701156
157580235,105322.71,219.0,-961.0,-238.0,0.49,-0.839,-0.769,1013.9654826472151,1.2391053223999968
157762920,105505.395,226.0,-958.0,-238.0,0.419,-0.49,-0.28,1012.6618389176123,0.7028947289601765
157945605,105688.08,236.0,-957.0,-237.0,0.49,-0.56,-0.629,1013.7622995554727,0.9743413159668434
158128290,105870.765,235.0,-957.0,-235.0,0.419,-0.699,-0.56,1013.0641638119473,0.9888184868821982
158310975,106053.45,232.0,-958.0,-234.0,0.49,-0.839,-0.629,1013.0863734154161,1.1574376873076149
158493660,106236.135,234.0,-958.0,-236.0,0.56,-0.839,-0.699,1014.0098618849819,1.2272416225014535
158676345,106418.82,232.0,-958.0,-238.0,0.56,-0.98,-1.12,1014.0177513239105,1.5900943368240767
158859030,106601.505,220.0,-960.0,-242.0,0.419,-0.839,-0.839,1014.1814433325035,1.2583334216335509
159041715,106784.19,224.0,-960.0,-242.0,0.28,-0.699,-0.56,1015.0566486654822,0.9384034313662755
159224400,106966.875,232.0,-960.0,-241.0,0.349,-0.839,-0.419,1016.6144795348923,1.000641294370765
159407085,107149.56,238.0,-956.0,-239.0,0.349,-0.98,-0.839,1013.7558877757505,1.3364587535722903
159589770,107332.245,229.0,-959.0,-238.0,0.56,-1.049,-1.12,1014.2810261461071,1.6335241045053484
159772455,107514.93,222.0,-960.0,-241.0,0.629,-0.839,-0.699,1014.3791204475771,1.260223392895085
159964755,107707.23,222.0,-961.0,-242.0,0.56,-0.699,-0.629,1015.5633904390213,1.0944596840450542
160147440,107889.915,233.0,-959.0,-243.0,0.349,-0.769,-0.49,1016.3754227646397,0.9763513711774056
160330125,108072.6,231.0,-960.0,-238.0,0.49,-0.91,-0.699,1015.6795754567481,1.2477183175701156
160512810,108255.285,227.0,-959.0,-238.0,0.419,-0.839,-0.28,1013.8313469211731,0.9787144629563823
160695495,108437.97,233.0,-958.0,-238.0,0.419,-0.769,-0.699,1014.2470113340241,1.1205012271300732
160878180,108620.655,227.0,-959.0,-236.0,0.349,-0.98,-0.769,1013.36370568518,1.2936622434004943
161060865,108803.34,229.0,-960.0,-238.0,0.56,-0.839,-0.629,1015.2265756962827,1.1887649052693303
161243550,108986.025,230.0,-959.0,-238.0,0.56,-0.699,-0.56,1014.5072695648859,1.0563148204962383
161426235,109168.71,227.0,-960.0,-239.0,0.419,-0.769,-0.629,1015.0123151962246,1.0782221477970113
161608920,109351.395,227.0,-961.0,-238.0,0.419,-0.56,-0.349,1015.7233875421005,0.7816405823650663
161791605,109534.08,239.0,-957.0,-237.0,0.49,-0.91,-0.629,1014.4648835716296,1.2098929704730084
161974290,109716.765,226.0,-959.0,-234.0,0.56,-0.839,-1.12,1012.6761575153233,1.5072892887564748
162156975,109899.45,224.0,-961.0,-237.0,0.49,-0.699,-0.349,1014.8231373002884,0.9222266532691407
162339660,110082.135,230.0,-958.0,-241.0,0.49,-0.769,-0.699,1014.2706739327525,1.1489395110274518
162522345,110264.82,218.0,-959.0,-241.0,0.28,-0.699,-0.28,1012.5640720468014,0.8033685331154065
162705030,110447.505,236.0,-955.0,-233.0,0.28,-0.769,-0.419,1010.945102367087,0.9194139437707044
162897330,110639.805,243.0,-954.0,-235.0,0.349,-0.91,-1.049,1012.1215342042674,1.4318875654184584
163080015,110822.49,229.0,-958.0,-236.0,0.419,-0.56,-0.49,1012.8677110067238,0.8539677979877227
163262700,111005.175,242.0,-956.0,-234.0,0.56,-0.91,-0.98,1013.5363831653998,1.4498620624045586
163445385,111187.86,219.0,-961.0,-240.0,0.56,-0.839,-0.56,1014.4367895536913,1.1537421722378012
163628070,111370.545,221.0,-960.0,-240.0,0.349,-0.56,-0.209,1013.923567139062,0.6921574965280662
163810755,111553.23,241.0,-956.0,-238.0,0.349,-0.769,-0.56,1014.2292640226864,1.0132926526922021
163993440,111735.915,232.0,-957.0,-236.0,0.56,-0.98,-0.769,1012.6050562781128,1.3657821934701009
164176125,111918.6,215.0,-962.0,-236.0,0.56,-0.699,-0.98,1013.5901538590438,1.3276298429908842
164358810,112101.285,218.0,-961.0,-240.0,0.419,-0.49,-0.14,1014.2213762290755,0.6597431318323821
164541495,112283.97,243.0,-957.0,-238.0,0.28,-0.769,-0.209,1015.6485612651652,0.8446549591401213
164724180,112466.655,234.0,-956.0,-235.0,0.49,-0.98,-0.98,1011.8878396344132,1.47
164906865,112649.34,222.0,-959.0,-233.0,0.56,-0.91,-0.769,1011.5601811063937,1.3164577471381298
165089550,112832.025,230.0,-956.0,-237.0,0.56,-0.49,-0.699,1011.4370964128219,1.020931437462869
165272235,113014.71,224.0,-958.0,-241.0,0.349,-0.629,-0.91,1012.9269470203664,1.1599749997305977
165454920,113197.395,215.0,-961.0,-241.0,0.14,-0.629,-0.14,1013.8180310095102,0.6594247493080617
165637605,113380.08,238.0,-958.0,-236.0,0.349,-0.839,-0.49,1014.9403923383875,1.0323865555110643
165829905,113572.38,233.0,-957.0,-239.0,0.28,-0.91,-0.629,1013.5378631309242,1.1411139294566517
166012590,113755.065,234.0,-958.0,-240.0,0.419,-0.91,-1.049,1014.9482745440774,1.4505385206880925
166195275,113937.75,221.0,-960.0,-237.0,0.419,-0.839,-0.769,1013.2176469051454,1.2127831628118853
166377960,114120.435,227.0,-959.0,-240.0,0.349,-0.699,-0.209,1014.3027161552906,0.8087539798974716
166560645,114303.12,230.0,-956.0,-238.0,0.349,-0.629,-0.49,1011.6718835669992,0.8703688873115812
166743330,114485.805,232.0,-956.0,-235.0,0.419,-0.699,-0.49,1011.4272094421823,0.9509269162243752
166926015,114668.49,231.0,-957.0,-233.0,0.56,-0.91,-0.91,1011.6812739198052,1.4034956359034396
167108700,114851.175,221.0,-958.0,-239.0,0.49,-0.769,-0.56,1011.7934571838266,1.0700752310001387
167291385,115033.86,233.0,-956.0,-237.0,0.419,-0.629,-0.349,1012.1235102496138,0.8324680174036717
167474070,115216.545,229.0,-958.0,-237.0,0.56,-0.91,-1.33,1013.1011795472356,1.7060480649735519
167656755,115399.23,215.0,-962.0,-237.0,0.28,-0.629,0.14,1013.8234560316703,0.7025959009274108
167839440,115581.915,245.0,-954.0,-238.0,0.28,-0.839,-0.49,1013.3040017684723,1.0111483570673494
168022125,115764.6,235.0,-956.0,-236.0,0.419,-1.049,-1.049,1012.3522114363162,1.5415456529081453
168204810,115947.285,224.0,-960.0,-235.0,0.56,-0.769,-0.49,1013.4105781962215,1.0700752310001387
168387495,116129.97,235.0,-957.0,-236.0,0.49,-0.839,-0.769,1013.296600211409,1.2391053223999968
168570180,116312.655,228.0,-959.0,-242.0,0.56,-0.839,-0.839,1015.0019704414372,1.3120373470294204
168752865,116495.34,227.0,-961.0,-239.0,0.419,-0.839,-0.769,1015.958168430177,1.2127831628118853
168935550,116678.025,224.0,-960.0,-238.0,0.349,-0.91,-0.56,1014.1104476337871,1.1240556036068678
169118235,116860.71,226.0,-958.0,-241.0,0.349,-0.769,-0.56,1013.3711067521118,1.0132926526922021
169310535,117053.01,233.0,-959.0,-240.0,0.49,-0.699,-0.629,1015.6623454672325,1.0603499422360525
169493220,117235.695,235.0,-957.0,-238.0,0.419,-0.769,-0.699,1013.7642724026133,1.1205012271300732
169675905,117418.38,232.0,-958.0,-236.0,0.49,-0.769,-0.699,1013.5501960929217,1.1489395110274518
169858590,117601.065,233.0,-960.0,-236.0,0.49,-0.769,-0.419,1015.6697297842444,1.0035048579852517
170041275,117783.75,231.0,-958.0,-238.0,0.629,-0.98,-0.839,1013.7894258671275,1.4352567714524114
170233575,117976.05,223.0,-960.0,-239.0,0.56,-0.769,-0.769,1014.1252388142207,1.2232424126067571
170416260,118158.735,224.0,-960.0,-238.0,0.49,-0.699,-0.419,1014.1104476337871,0.9509269162243752
170598945,118341.42,227.0,-958.0,-240.0,0.419,-0.91,-0.699,1013.3572913834488,1.221581761487949
170781630,118524.105,231.0,-958.0,-241.0,0.419,-0.839,-0.699,1014.4979053699421,1.1696508025902432
170964315,118706.79,229.0,-960.0,-237.0,0.49,-0.699,-0.56,1014.9926108105418,1.020931437462869
171156615,118899.09,227.0,-959.0,-236.0,0.49,-0.699,-0.49,1013.36370568518,0.9842768919364103
171339300,119081.775,228.0,-959.0,-239.0,0.349,-0.769,-0.49,1014.2908852986899,0.9763513711774056
171521985,119264.46,230.0,-959.0,-237.0,0.419,-0.769,-0.419,1014.2731387550397,0.9708156364624542
171704670,119447.145,230.0,-956.0,-236.0,0.419,-0.769,-0.769,1011.2032436656837,1.1654539887957827
171887355,119629.83,220.0,-960.0,-238.0,0.49,-0.769,-0.629,1013.2344249974929,1.107746360860644
172079655,119822.13,225.0,-961.0,-238.0,0.49,-0.629,-0.349,1015.2782869735765,0.8703688873115812
172262340,120004.815,233.0,-957.0,-239.0,0.56,-0.769,-0.629,1013.5378631309242,1.1404393890075877
172445025,120187.5,228.0,-958.0,-239.0,0.419,-0.839,-0.699,1013.3454494889687,1.1696508025902432
172627710,120370.185,228.0,-959.0,-238.0,0.419,-0.769,-0.49,1014.0557183902667,1.0035048579852517
172810395,120552.87,226.0,-958.0,-238.0,0.419,-0.699,-0.56,1012.6618389176123,0.9888184868821982
172993080,120735.555,235.0,-958.0,-239.0,0.349,-0.699,-0.629,1014.9433481726948,1.0030169490093375
173175765,120918.24,227.0,-960.0,-239.0,0.349,-0.839,-0.49,1015.0123151962246,1.0323865555110643
173358450,121100.925,228.0,-959.0,-237.0,0.349,-0.699,-0.349,1013.8214832996981,0.8556886115871823
173550750,121293.225,229.0,-956.0,-238.0,0.28,-0.769,-0.56,1011.4450059197485,0.9916456020171723
173733435,121475.91,231.0,-959.0,-237.0,0.419,-0.769,-0.629,1014.5003696401495,1.0782221477970113
173916120,121658.595,227.0,-958.0,-237.0,0.49,-0.769,-0.56,1012.6509763980876,1.0700752310001387
174098805,121841.28,228.0,-959.0,-236.0,0.49,-0.839,-0.699,1013.588180672999,1.1969218855046473
174281490,122023.965,223.0,-960.0,-239.0,0.419,-0.839,-0.349,1014.1252388142207,1.000641294370765
174464175,122206.65,233.0,-958.0,-237.0,0.419,-0.839,-0.629,1014.0128204317734,1.1292134430655703
174646860,122389.335,226.0,-958.0,-238.0,0.419,-0.839,-0.699,1012.6618389176123,1.1696508025902432
174829545,122572.02,228.0,-959.0,-238.0,0.349,-0.699,-0.419,1014.0557183902667,0.8865455431053725
175012230,122754.705,229.0,-958.0,-238.0,0.419,-0.839,-0.699,1013.3355811378578,1.1696508025902432
175194915,122937.39,225.0,-959.0,-238.0,0.349,-0.699,-0.629,1013.3854153282452,1.0030169490093375
175377600,123120.075,232.0,-958.0,-237.0,0.28,-0.839,-0.629,1013.7835074610358,1.0853395781966122
175569900,123312.375,228.0,-959.0,-239.0,0.49,-0.839,-0.49,1014.2908852986899,1.0881732398841646
175752585,123495.06,234.0,-957.0,-237.0,0.49,-0.839,-0.769,1013.2985739652454,1.2391053223999968
175944885,123687.36,228.0,-959.0,-236.0,0.56,-0.769,-0.91,1013.588180672999,1.3164577471381298
176127570,123870.045,228.0,-959.0,-238.0,0.56,-0.699,-0.419,1014.0557183902667,0.9888184868821982
176310255,124052.73,231.0,-958.0,-238.0,0.56,-0.839,-0.769,1013.7894258671275,1.2684171238200783
176492940,124235.415,220.0,-960.0,-239.0,0.349,-0.49,-0.56,1013.4697824799712,0.8218886785933969
176675625,124418.1,234.0,-958.0,-236.0,0.349,-0.49,-0.349,1014.0098618849819,0.6954868798187354
176858310,124600.785,234.0,-957.0,-234.0,0.49,-0.769,-0.91,1012.6011060629946,1.288239496367038
177040995,124783.47,229.0,-958.0,-236.0,0.349,-0.699,-0.49,1012.8677110067238,0.9222266532691407
177223680,124966.155,228.0,-957.0,-232.0,0.49,-0.699,-0.419,1010.7704981844296,0.9509269162243752
177415980,125158.455,229.0,-958.0,-236.0,0.419,-0.769,-0.839,1012.8677110067238,1.2127831628118853
177598665,125341.14,226.0,-961.0,-237.0,0.419,-0.769,-0.56,1015.2664674852607,1.039481601568782
177781350,125523.825,231.0,-957.0,-241.0,0.14,-0.629,-0.349,1013.5536492953888,0.7328314949563781
177964035,125706.51,234.0,-957.0,-233.0,0.419,-0.839,-1.049,1012.3704855437064,1.4070831531931578
178146720,125889.195,221.0,-959.0,-236.0,0.419,-0.839,-0.629,1012.0365606044082,1.1292134430655703
178329405,126071.88,228.0,-959.0,-238.0,0.49,-0.839,-0.49,1014.0557183902667,1.0881732398841646
178512090,126254.565,227.0,-959.0,-240.0,0.349,-0.839,-0.56,1014.3027161552906,1.0673902753913396
178694775,126437.25,225.0,-959.0,-239.0,0.349,-0.839,-0.49,1013.6207377515517,1.0323865555110643
178877460,126619.935,229.0,-958.0,-239.0,0.349,-0.769,-0.56,1013.5709151312502,1.0132926526922021
179060145,126802.62,230.0,-958.0,-237.0,0.419,-0.839,-0.629,1013.3276863877745,1.1292134430655703
179242830,126985.305,225.0,-957.0,-240.0,0.349,-0.839,-0.629,1011.9654144287739,1.1051529305937706
179425515,127167.99,229.0,-959.0,-237.0,0.49,-0.769,-0.699,1014.0468430994695,1.1489395110274518
179608200,127350.675,225.0,-959.0,-237.0,0.49,-0.839,-0.56,1013.1510252672106,1.12143702453593
179790885,127533.36,229.0,-959.0,-238.0,0.419,-0.699,-0.419,1014.2810261461071,0.9163640106420592
179973570,127716.045,233.0,-958.0,-238.0,0.419,-0.839,-0.629,1014.2470113340241,1.1292134430655703
180156255,127898.73,229.0,-958.0,-237.0,0.49,-0.769,-0.699,1013.1011795472356,1.1489395110274518
180348555,128091.03,233.0,-958.0,-236.0,0.419,-0.769,-0.56,1013.7795618377794,1.039481601568782
180531240,128273.715,230.0,-958.0,-235.0,0.56,-0.839,-0.49,1012.8617872148203,1.12143702453593
180713925,128456.4,230.0,-958.0,-238.0,0.49,-0.839,-0.56,1013.5620355952565,1.12143702453593
180896610,128639.085,221.0,-957.0,-236.0,0.349,-0.699,-0.419,1010.1415742360077,0.8865455431053725
181079295,128821.77,227.0,-959.0,-236.0,0.419,-0.629,-0.349,1013.36370568518,0.8324680174036717
181261980,129004.455,233.0,-956.0,-237.0,0.49,-0.839,-0.98,1012.1235102496138,1.3800076086746766
181444665,129187.14,211.0,-962.0,-238.0,0.209,-0.629,-0.49,1013.2171534276351,0.8242705866400911
181627350,129369.825,230.0,-957.0,-238.0,0.349,-0.629,-0.419,1012.6169068310088,0.8324680174036717
181810035,129552.51,234.0,-955.0,-237.0,0.419,-0.699,-0.49,1011.4099070110002,0.9509269162243752
181992720,129735.195,229.0,-958.0,-234.0,0.419,-0.839,-0.839,1012.4035756554794,1.2583334216335509
182175405,129917.88,229.0,-959.0,-236.0,0.49,-0.839,-0.699,1013.813592333423,1.1969218855046473
182358090,130100.565,227.0,-958.0,-240.0,0.56,-0.91,-0.349,1013.3572913834488,1.1240556036068678
182540775,130283.25,218.0,-960.0,-240.0,0.49,-0.629,-0.699,1013.273901765954,1.0603499422360525
182723460,130465.935,224.0,-959.0,-237.0,0.28,-0.629,-0.49,1012.9294151124253,0.8450686362657178
182906145,130648.62,236.0,-956.0,-236.0,0.349,-0.769,-0.839,1012.5848112627406,1.190412953558554
183088830,130831.305,226.0,-959.0,-236.0,0.49,-0.839,-0.419,1013.1401679925636,1.0581030195590597
183281130,131023.605,234.0,-958.0,-237.0,0.349,-0.839,-0.839,1014.2430675138972,1.236787370569412
183463815,131206.29,228.0,-958.0,-232.0,0.419,-0.769,-0.419,1011.7173518330108,0.9708156364624542
183646500,131388.975,232.0,-956.0,-237.0,0.56,-0.91,-0.98,1011.8937691279654,1.4498620624045586
183829185,131571.66,217.0,-962.0,-240.0,0.49,-0.699,-0.56,1014.9546787911271,1.020931437462869
184011870,131754.345,233.0,-958.0,-238.0,0.419,-0.769,-0.419,1014.2470113340241,0.9708156364624542
184194555,131937.03,234.0,-957.0,-239.0,0.419,-0.839,-0.839,1013.7682180853767,1.2583334216335509
184377240,132119.715,229.0,-960.0,-237.0,0.349,-0.769,-0.419,1014.9926108105418,0.9427210616083636
184559925,132302.4,229.0,-958.0,-235.0,0.49,-0.839,-0.49,1012.6351761616817,1.0881732398841646
184742610,132485.085,223.0,-959.0,-235.0,0.419,-0.629,-0.419,1012.2425598639883,0.8641545000750733
184925295,132667.77,232.0,-957.0,-236.0,0.629,-0.56,-0.419,1012.6050562781128,0.9406391444119259
185107980,132850.455,225.0,-958.0,-235.0,0.49,-0.839,-1.049,1011.73810840553,1.429832857364804
185290665,133033.14,227.0,-958.0,-240.0,0.49,-0.769,-0.56,1013.3572913834488,1.0700752310001387
185473350,133215.825,223.0,-961.0,-236.0,0.419,-0.56,-0.209,1014.3697550696196,0.7299602728916144
185656035,133398.51,236.0,-956.0,-236.0,0.49,-0.769,-0.629,1012.5848112627406,1.107746360860644
185838720,133581.195,226.0,-958.0,-236.0,0.49,-0.839,-0.98,1012.1936573600923,1.3800076086746766
186021405,133763.88,221.0,-962.0,-238.0,0.56,-0.49,-0.349,1015.3467388040402,0.8218886785933969
186213705,133956.18,240.0,-958.0,-234.0,0.56,-0.699,-0.14,1014.9482745440774,0.9065324042746624
186396390,134138.865,238.0,-955.0,-237.0,0.56,-1.049,-1.259,1012.3428273070343,1.7317857835194281
186579075,134321.55,211.0,-963.0,-237.0,0.419,-0.56,-0.49,1013.9324435089352,0.8539677979877227
186761760,134504.235,238.0,-957.0,-236.0,0.49,-0.699,-0.49,1013.9965483175966,0.9842768919364103
186944445,134686.92,230.0,-957.0,-242.0,0.49,-0.98,-0.98,1013.5645021408357,1.47
187127130,134869.605,222.0,-962.0,-240.0,0.349,-0.769,-0.28,1016.0354324530223,0.8896977014694373
187309815,135052.29,236.0,-955.0,-234.0,0.56,-0.91,-0.699,1011.1760479758211,1.276832408736558
187492500,135234.975,221.0,-960.0,-241.0,0.49,-0.91,-0.839,1014.1607367671064,1.3312103515222529
187675185,135417.66,222.0,-959.0,-238.0,0.349,-0.56,-0.14,1012.7235555668684,0.6745376194105115
187857870,135600.345,235.0,-957.0,-237.0,0.28,-0.769,-0.769,1013.5299699564882,1.1229968833438497
188040555,135783.03,231.0,-958.0,-235.0,0.419,-0.699,-0.699,1013.0893346590912,1.0736680120037105
188223240,135965.715,235.0,-957.0,-237.0,0.49,-0.769,-0.699,1013.5299699564882,1.1489395110274518
188405925,136148.4,227.0,-959.0,-237.0,0.56,-0.699,-0.629,1013.5970599799508,1.0944596840450542
188588610,136331.085,226.0,-958.0,-237.0,0.49,-0.839,-0.699,1012.4272813392574,1.1969218855046473
188771295,136513.77,236.0,-957.0,-243.0,0.419,-0.699,-0.839,1015.1817571252943,1.1696508025902432
188953980,136696.455,225.0,-961.0,-243.0,0.49,-0.98,-0.629,1016.4620012573023,1.263384739499413
189146280,136888.755,218.0,-962.0,-244.0,0.349,-0.91,-0.49,1016.1220399144977,1.0908716698127237
189328965,137071.44,237.0,-968.0,-233.0,0.56,-0.699,-0.839,1023.4656809097215,1.2272416225014535
189511650,137254.125,217.0,-964.0,-238.0,0.349,-0.56,-0.419,1016.3803421947907,0.7816405823650663
189694335,137436.81,261.0,-951.0,-236.0,0.28,-0.769,-0.91,1014.0108480682048,1.2238713167649613
189877020,137619.495,233.0,-958.0,-237.0,0.56,-0.839,-0.769,1014.0128204317734,1.2684171238200783
190059705,137802.18,241.0,-958.0,-241.0,0.56,-1.539,-1.47,1016.8215182616859,2.2006864838045423
190242390,137984.865,221.0,-961.0,-244.0,0.28,-0.699,0.98,1015.8238036195056,1.2358806576688544
190425075,138167.55,265.0,-950.0,-234.0,0.349,-0.839,-0.49,1013.647374583489,1.0323865555110643
190617375,138359.85,246.0,-954.0,-234.0,0.49,-1.399,-1.679,1012.614437977259,2.239719178825774
190800060,138542.535,214.0,-961.0,-238.0,0.49,-0.839,-0.419,1012.8973294465733,1.0581030195590597
190982745,138725.22,236.0,-957.0,-239.0,0.49,-0.629,0.0,1014.2317289456093,0.7973336817167578
191165430,138907.905,235.0,-958.0,-239.0,0.49,-0.98,-0.91,1014.9433481726948,1.4242892964563063
191348115,139090.59,225.0,-961.0,-239.0,0.349,-0.839,-0.56,1015.5131707663865,1.0673902753913396
191530800,139273.275,230.0,-958.0,-234.0,0.49,-0.769,-0.349,1012.6302385372461,0.9763513711774056
191713485,139455.96,219.0,-961.0,-238.0,0.699,-0.699,-0.629,1013.9654826472151,1.171683831073895
191896170,139638.645,230.0,-961.0,-241.0,0.419,-0.56,-0.56,1017.1047143731072,0.8959693075100286
192078855,139821.33,238.0,-958.0,-236.0,0.349,-0.91,-0.49,1014.9403923383875,1.0908716698127237
192261540,140004.015,226.0,-958.0,-235.0,0.56,-0.839,-0.56,1011.9609676267163,1.1537421722378012
192444225,140186.7,230.0,-958.0,-238.0,0.49,-0.699,-0.49,1013.5620355952565,0.9842768919364103
192626910,140369.385,231.0,-957.0,-237.0,0.49,-0.839,-0.769,1012.6099940253405,1.2391053223999968
192809595,140552.07,224.0,-959.0,-239.0,0.56,-0.769,-0.699,1013.3992303135028,1.1804922701991742
192992280,140734.755,227.0,-959.0,-239.0,0.419,-0.699,-0.419,1014.0665658624191,0.9163640106420592
193174965,140917.44,235.0,-956.0,-237.0,0.49,-0.769,-0.419,1012.5857988338569,1.0035048579852517
193357650,141100.125,235.0,-959.0,-235.0,0.349,-0.839,-0.91,1014.9536935249805,1.2860101088249656
193549950,141292.425,233.0,-956.0,-237.0,0.49,-0.98,-0.839,1012.1235102496138,1.3800076086746766
193732635,141475.11,221.0,-961.0,-237.0,0.56,-0.769,-0.209,1014.1651739238534,0.9739825460448458
193915320,141657.795,233.0,-957.0,-238.0,0.49,-0.839,-0.49,1013.3025214613847,1.0881732398841646
194098005,141840.48,227.0,-958.0,-240.0,0.419,-0.839,-0.91,1013.3572913834488,1.3067448105885096
194280690,142023.165,228.0,-959.0,-236.0,0.419,-0.629,-0.349,1013.588180672999,0.8324680174036717
194463375,142205.85,229.0,-958.0,-236.0,0.49,-0.839,-0.839,1012.8677110067238,1.283721932507192
194646060,142388.535,224.0,-959.0,-240.0,0.349,-0.769,-0.629,1013.6355360779337,1.052997150993297
194828745,142571.22,234.0,-958.0,-237.0,0.419,-0.699,-0.14,1014.2430675138972,0.8268990264838869
195011430,142753.905,228.0,-957.0,-236.0,0.56,-0.91,-0.91,1011.6961006151996,1.4034956359034396
195194115,142936.59,224.0,-960.0,-239.0,0.49,-0.839,-0.629,1014.3456018537272,1.1574376873076149
195376800,143119.275,238.0,-956.0,-240.0,0.419,-0.769,-0.699,1013.9921104229559,1.1205012271300732
195559485,143301.96,221.0,-960.0,-239.0,0.419,-0.839,-0.629,1013.6873285190064,1.1292134430655703
195742170,143484.645,231.0,-958.0,-241.0,0.349,-0.769,-0.56,1014.4979053699421,1.0132926526922021
195924855,143667.33,227.0,-960.0,-239.0,0.419,-0.769,-0.49,1015.0123151962246,1.0035048579852517
196107540,143850.015,231.0,-957.0,-238.0,0.419,-0.839,-0.349,1012.8445092905425,1.000641294370765
196290225,144032.7,236.0,-956.0,-236.0,0.419,-0.91,-0.49,1012.5848112627406,1.1152403328431053
196472910,144215.385,232.0,-956.0,-238.0,0.56,-0.91,-1.12,1012.1284503461011,1.5479341071247188
196655595,144398.07,221.0,-957.0,-242.0,0.49,-0.56,-0.699,1011.5601811063937,1.020931437462869
196838280,144580.755,230.0,-959.0,-237.0,0.349,-0.49,-0.349,1014.2731387550397,0.6954868798187354
197030580,144773.055,255.0,-951.0,-237.0,0.629,-1.33,-0.839,1012.7166434891844,1.6936534474325025
197213265,144955.74,206.0,-963.0,-243.0,0.769,-1.19,-0.769,1014.3244057006614,1.6120862259817246
197395950,145138.425,226.0,-958.0,-240.0,0.349,-0.49,0.07,1013.1337522755819,0.6056409827612395
197578635,145321.11,238.0,-956.0,-239.0,0.419,-0.91,-0.98,1013.7558877757505,1.4014496066573354
197761320,145503.795,230.0,-959.0,-242.0,0.419,-0.91,-0.629,1015.4531008372568,1.1829209610113434
197944005,145686.48,224.0,-961.0,-237.0,0.28,-0.769,-0.769,1014.8231373002884,1.1229968833438497
198126690,145869.165,238.0,-960.0,-234.0,0.56,-0.769,-0.349,1016.366075781753,1.0132926526922024
198309375,146051.85,235.0,-957.0,-241.0,0.49,-0.98,-0.91,1014.4727694719065,1.4242892964563063
198501675,146244.15,229.0,-959.0,-239.0,0.419,-0.49,-0.629,1014.5161408277347,0.9007230428938742
198684360,146426.835,239.0,-959.0,-235.0,0.56,-1.049,-0.769,1015.8872968986275,1.416108046725249
198876660,146619.135,219.0,-961.0,-238.0,0.49,-0.769,-0.209,1013.9654826472151,0.9354902458069779
199059345,146801.82,242.0,-956.0,-238.0,0.49,-0.839,-0.839,1014.4673479220512,1.283721932507192
199242030,146984.505,220.0,-961.0,-238.0,0.49,-0.769,-0.91,1014.1819363408126,1.288239496367038
199424715,147167.19,229.0,-958.0,-237.0,0.419,-0.56,-0.419,1013.1011795472356,0.8153048509606698
199607400,147349.875,229.0,-959.0,-239.0,0.56,-0.769,-0.769,1014.5161408277347,1.2232424126067571
199790085,147532.56,223.0,-960.0,-241.0,0.419,-0.769,-0.14,1014.5984427348585,0.886860755699563
199972770,147715.245,229.0,-958.0,-238.0,0.349,-0.769,-0.349,1013.3355811378578,0.9137630984013306
200155455,147897.93,230.0,-959.0,-235.0,0.49,-0.769,-0.699,1013.8076740684103,1.1489395110274518
200347755,148090.23,226.0,-959.0,-236.0,0.419,-0.91,-0.629,1013.1401679925636,1.1829209610113434
200530440,148272.915,228.0,-957.0,-237.0,0.56,-0.839,-0.56,1011.9298394651677,1.1537421722378012
200713125,148455.6,225.0,-959.0,-239.0,0.419,-0.699,-0.629,1013.6207377515517,1.0294673379957229
200895810,148638.285,226.0,-959.0,-238.0,0.349,-0.56,-0.629,1013.6079123605932,0.9116150503364894
201078495,148820.97,237.0,-958.0,-238.0,0.349,-0.699,-0.629,1015.1733842058705,1.0030169490093375
201261180,149003.655,232.0,-958.0,-238.0,0.419,-0.839,-0.56,1014.0177513239105,1.0922829303802197
201443865,149186.34,225.0,-961.0,-235.0,0.699,-1.33,-0.629,1014.5792231265136,1.6288468313503268
201626550,149369.025,203.0,-964.0,-244.0,0.56,-0.769,-1.12,1014.9093555584163,1.4694764373748905
201809235,149551.71,220.0,-962.0,-244.0,0.14,-0.419,0.28,1016.5529991102284,0.5230305918395214
201991920,149734.395,252.0,-954.0,-236.0,0.28,-0.769,-0.419,1014.5521179318488,0.9194139437707044
202174605,149917.08,236.0,-957.0,-233.0,0.419,-1.12,-1.19,1012.8346360586214,1.6870272671181104
202357290,150099.765,219.0,-960.0,-234.0,0.699,-0.56,-0.56,1012.0854706989919,1.0563148204962383
202539975,150282.45,234.0,-957.0,-236.0,0.56,-0.56,-0.56,1013.065150915774,0.9699484522385713
202722660,150465.135,220.0,-960.0,-242.0,0.349,-0.91,-0.98,1014.1814433325035,1.3821363897966077
202905345,150647.82,221.0,-962.0,-239.0,0.349,-0.56,0.28,1015.5816067653057,0.7167991350441211
203088030,150830.505,240.0,-955.0,-235.0,0.419,-0.91,-0.769,1012.3487541356486,1.262941803884882
203280330,151022.805,230.0,-958.0,-235.0,0.49,-1.049,-0.699,1012.8617872148203,1.3524429747682525
203463015,151205.49,224.0,-961.0,-236.0,0.49,-0.98,-0.419,1014.5900650016242,1.1730562646352476
203645700,151388.175,226.0,-959.0,-235.0,0.56,-0.98,-0.349,1012.9076956959109,1.1814402227789607
203828385,151570.86,228.0,-959.0,-239.0,0.419,-0.91,-0.419,1014.2908852986899,1.0859198865478061
204011070,151753.545,234.0,-957.0,-236.0,0.419,-0.91,-0.56,1013.065150915774,1.147719913567766
204193755,151936.23,229.0,-958.0,-235.0,0.49,-0.839,-0.56,1012.6351761616817,1.12143702453593
204376440,152118.915,232.0,-958.0,-236.0,0.56,-0.629,-0.629,1013.5501960929217,1.051133673706632
204559125,152301.6,234.0,-957.0,-235.0,0.769,-1.049,-0.91,1012.8326614006877,1.5874073201292729
204741810,152484.285,220.0,-960.0,-241.0,0.49,-1.049,-0.769,1013.9432922999194,1.3899143858525964
204924495,152666.97,226.0,-958.0,-242.0,0.419,-0.56,-0.209,1013.6093922216783,0.7299602728916144
205107180,152849.655,234.0,-958.0,-239.0,0.349,-0.769,-0.49,1014.7122744896703,0.9763513711774056
205299480,153041.955,230.0,-957.0,-238.0,0.28,-0.91,-0.699,1012.6169068310088,1.1811439370373114
205482165,153224.64,231.0,-958.0,-236.0,0.49,-0.769,-0.49,1013.3217652848477,1.03516230611436
205674465,153416.94,236.0,-957.0,-233.0,0.49,-0.91,-0.629,1012.8346360586214,1.2098929704730084
205857150,153599.625,227.0,-959.0,-237.0,0.56,-0.839,-0.769,1013.5970599799508,1.2684171238200783
206039835,153782.31,230.0,-958.0,-240.0,0.49,-0.699,-0.629,1014.0335300176223,1.0603499422360525
206222520,153964.995,228.0,-958.0,-238.0,0.419,-0.769,-0.49,1013.1100631224625,1.0035048579852517
206405205,154147.68,224.0,-959.0,-237.0,0.49,-0.769,-0.699,1012.9294151124253,1.1489395110274518
206587890,154330.365,228.0,-960.0,-240.0,0.349,-0.839,-0.56,1015.4723039059214,1.0673902753913396
206770575,154513.05,232.0,-957.0,-238.0,0.419,-0.769,-0.349,1013.073047711763,0.9427210616083636
206953260,154695.735,226.0,-959.0,-237.0,0.419,-0.839,-0.56,1013.3735737624107,1.0922829303802197
207145560,154888.035,230.0,-958.0,-237.0,0.349,-0.769,-0.629,1013.3276863877745,1.052997150993297
207328245,155070.72,240.0,-957.0,-237.0,0.349,-0.699,-0.629,1014.7009411644399,1.0030169490093375
207520545,155263.02,229.0,-958.0,-235.0,0.49,-0.839,-0.56,1012.6351761616817,1.12143702453593
207703230,155445.705,234.0,-953.0,-235.0,0.56,-0.699,-0.699,1009.0540124294636,1.1361346751155867
207885915,155628.39,234.0,-957.0,-237.0,0.629,-0.769,-1.049,1013.2985739652454,1.4447847590558256
208068600,155811.075,216.0,-964.0,-239.0,0.629,-0.98,-0.28,1016.4019874045898,1.1976815102522038
208251285,155993.76,213.0,-961.0,-240.0,0.49,-0.769,-0.209,1013.1584278877613,0.9354902458069779
208433970,156176.445,227.0,-960.0,-243.0,0.28,-0.699,-0.699,1015.9616134480673,1.027424936430881
208616655,156359.13,233.0,-959.0,-236.0,0.209,-0.769,-0.419,1014.7245931778731,0.900334937675974
208799340,156541.815,236.0,-958.0,-235.0,0.419,-0.91,-0.629,1014.2410955980831,1.1829209610113434
208991640,156734.115,227.0,-959.0,-236.0,0.56,-0.699,-0.629,1013.36370568518,1.0944596840450542
209174325,156916.8,224.0,-959.0,-238.0,0.419,-0.699,-0.699,1013.16385644179,1.0736680120037105
209357010,157099.485,228.0,-960.0,-238.0,0.28,-0.769,-0.419,1015.0014778314364,0.9194139437707044
209539695,157282.17,232.0,-957.0,-237.0,0.419,-0.769,-0.49,1012.8385853629393,1.0035048579852517
209722380,157464.855,227.0,-960.0,-233.0,0.49,-0.769,-0.699,1013.6162982115077,1.1489395110274518
209905065,157647.54,228.0,-959.0,-234.0,0.699,-0.839,-0.629,1013.1243753853719,1.260223392895085
210087750,157830.225,226.0,-959.0,-237.0,0.629,-0.699,-0.419,1013.3735737624107,1.0294673379957229
210270435,158012.91,229.0,-959.0,-236.0,0.56,-0.699,-0.56,1013.813592333423,1.0563148204962383
210453120,158195.595,228.0,-960.0,-238.0,0.49,-0.769,-0.769,1015.0014778314364,1.192821025971625
210635805,158378.28,227.0,-959.0,-238.0,0.56,-0.839,-0.769,1013.8313469211731,1.2684171238200783
210818490,158560.965,225.0,-960.0,-240.0,0.49,-0.629,-0.699,1014.8029365349709,1.0603499422360525
211001175,158743.65,230.0,-959.0,-239.0,0.419,-0.699,-0.349,1014.7423318261636,0.8865455431053725
211183860,158926.335,237.0,-958.0,-235.0,0.419,-0.699,-0.49,1014.4742480713841,0.9509269162243752
211366545,159109.02,235.0,-958.0,-233.0,0.56,-0.98,-0.629,1013.5472361957286,1.2921458895960625
211549230,159291.705,219.0,-959.0,-235.0,0.56,-0.699,-0.28,1011.3688743480294,0.9384034313662755
211731915,159474.39,229.0,-958.0,-237.0,0.629,-0.769,-0.419,1013.1011795472356,1.0782221477970113
211914600,159657.075,226.0,-961.0,-236.0,0.349,-0.699,-0.28,1015.0334969842129,0.8299409617557142
212097285,159839.76,242.0,-956.0,-237.0,0.56,-0.839,-0.699,1014.2332078964877,1.2272416225014535
212279970,160022.445,222.0,-960.0,-235.0,0.49,-0.699,-0.629,1012.9703845621549,1.0603499422360525
212472270,160214.745,225.0,-958.0,-241.0,0.56,-1.049,-0.49,1013.1485577150075,1.2861185792919718
212654955,160397.43,224.0,-958.0,-238.0,0.49,-0.839,-0.56,1012.2173679600642,1.12143702453593
212837640,160580.115,228.0,-962.0,-237.0,0.419,-0.699,-0.49,1016.6597267522699,0.9509269162243752
213020325,160762.8,236.0,-957.0,-234.0,0.419,-0.91,-0.14,1013.065150915774,1.0115636411022295
213203010,160945.485,228.0,-957.0,-236.0,0.629,-0.98,-1.399,1011.6961006151996,1.8202313039830953
213385695,161128.17,245.0,-970.0,-236.0,0.769,-0.769,-0.349,1027.9207167870486,1.1421571695699329
213568380,161310.855,246.0,-954.0,-239.0,0.91,-1.679,-0.349,1013.7815346513271,1.9413763159161082
213751065,161493.54,193.0,-965.0,-246.0,0.699,-1.19,-1.19,1014.3914431815757,1.8223065055033962
213943365,161685.84,202.0,-966.0,-245.0,0.349,-0.699,0.419,1016.850529822353,0.8865455431053725
214126050,161868.525,247.0,-953.0,-244.0,0.28,-0.699,-0.07,1014.2751106085567,0.7562413635870495
214308735,162051.21,221.0,-960.0,-241.0,0.209,-0.98,-0.629,1014.1607367671064,1.1830984743460706
214491420,162233.895,224.0,-959.0,-231.0,0.349,-0.49,-0.28,1011.5423866551515,0.6635518065682589
214674105,162416.58,239.0,-960.0,-234.0,0.49,-1.12,-0.56,1016.6007082429168,1.3446560898608984
214856790,162599.265,235.0,-958.0,-237.0,0.629,-0.839,-0.349,1014.4742480713841,1.1051529305937708
215039475,162781.95,215.0,-959.0,-236.0,0.56,-0.98,-0.349,1010.7432908508471,1.1814402227789607
215222160,162964.635,235.0,-956.0,-234.0,0.419,-0.839,-0.49,1011.8878396344132,1.0581030195590597
215404845,163147.32,222.0,-960.0,-237.0,0.49,-0.98,-0.419,1013.4362338104949,1.1730562646352476
215587530,163330.005,234.0,-958.0,-237.0,0.419,-0.769,-0.349,1014.2430675138972,0.9427210616083636
215770215,163512.69,207.0,-959.0,-240.0,0.349,-0.839,-0.49,1010.0148513759588,1.0323865555110643
215952900,163695.375,226.0,-958.0,-234.0,0.28,-0.419,-0.209,1011.7292127837369,0.5455657613890372
216135585,163878.06,235.0,-956.0,-235.0,0.419,-0.91,-0.98,1012.119558155063,1.4014496066573354
216318270,164060.745,218.0,-959.0,-236.0,0.49,-0.839,-0.839,1011.3856831100586,1.283721932507192
216500955,164243.43,218.0,-960.0,-240.0,0.28,-0.419,-0.419,1013.273901765954,0.6553792795015723
216683640,164426.115,243.0,-956.0,-238.0,0.349,-0.699,-0.56,1014.7063614662126,0.9612502275682435
216875940,164618.415,236.0,-956.0,-237.0,0.349,-0.91,-0.629,1012.8183450155313,1.1599749997305977
217058625,164801.1,235.0,-958.0,-233.0,0.49,-0.769,-1.12,1013.5472361957286,1.4442510169634641
217241310,164983.785,217.0,-962.0,-236.0,0.629,-0.839,-0.769,1014.0162720587871,1.300354951542078
217423995,165166.47,222.0,-960.0,-242.0,0.629,-0.56,0.07,1014.6171691825444,0.8450686362657178
217606680,165349.155,236.0,-957.0,-239.0,0.28,-0.629,-0.629,1014.2317289456093,0.932567423835939
217789365,165531.84,233.0,-960.0,-234.0,0.419,-0.91,-0.98,1015.2068754692316,1.4014496066573354
217972050,165714.525,221.0,-959.0,-236.0,0.56,-0.839,-0.91,1012.0365606044082,1.3585363447475374
218154735,165897.21,227.0,-959.0,-241.0,0.49,-0.28,-0.769,1014.5397971494267,0.9538663428384503
218337420,166079.895,237.0,-958.0,-241.0,0.209,-0.699,-0.56,1015.8808985309253,0.919718435174592
218520105,166262.58,226.0,-958.0,-236.0,0.349,-0.769,-0.49,1012.1936573600923,0.9763513711774056
218702790,166445.265,223.0,-959.0,-236.0,0.419,-0.839,-0.839,1012.4751848810913,1.2583334216335509
218895090,166637.565,223.0,-959.0,-234.0,0.56,-0.769,-0.56,1012.0108695068448,1.1038845048282906
219077775,166820.25,226.0,-960.0,-240.0,0.419,-0.769,-0.419,1015.0251228417945,0.9708156364624542
219270075,167012.55,231.0,-957.0,-240.0,0.349,-0.769,-0.419,1013.3163375767707,0.9427210616083636
219452760,167195.235,220.0,-958.0,-237.0,0.419,-0.629,-0.699,1011.1048412504017,1.0294673379957229
219635445,167377.92,223.0,-963.0,-231.0,0.28,-0.629,-0.49,1015.1152643911922,0.8450686362657178
219818130,167560.605,236.0,-956.0,-236.0,0.419,-0.629,-0.98,1012.5848112627406,1.2375790883818294
220000815,167743.29,235.0,-956.0,-236.0,0.56,-0.699,-0.629,1012.3522114363162,1.0944596840450542
220193115,167935.59,230.0,-958.0,-235.0,0.49,-0.839,-0.769,1012.8617872148203,1.2391053223999968
220375800,168118.275,225.0,-960.0,-236.0,0.56,-0.769,-0.629,1013.8643893539214,1.1404393890075877
220558485,168300.96,230.0,-958.0,-239.0,0.49,-0.769,-0.56,1013.7973170215041,1.0700752310001387
220741170,168483.645,227.0,-959.0,-239.0,0.419,-0.839,-0.629,1014.0665658624191,1.1292134430655703
220923855,168666.33,228.0,-959.0,-239.0,0.28,-0.769,-0.349,1014.2908852986899,0.8896977014694373
221116155,168858.63,236.0,-957.0,-239.0,0.28,-0.839,-0.699,1014.2317289456093,1.1273517640914037
221298840,169041.315,226.0,-960.0,-239.0,0.349,-0.91,-0.56,1014.7891406592801,1.1240556036068678
221481525,169224.0,231.0,-958.0,-240.0,0.349,-0.839,-0.56,1014.2608145837046,1.0673902753913396
221664210,169406.685,230.0,-958.0,-239.0,0.419,-0.91,-0.769,1013.7973170215041,1.262941803884882
221846895,169589.37,227.0,-960.0,-239.0,0.49,-0.699,-0.699,1015.0123151962246,1.1033140985231722
222029580,169772.055,226.0,-960.0,-240.0,0.349,-0.629,-0.699,1015.0251228417945,1.0030169490093375
222212265,169954.74,229.0,-959.0,-239.0,0.28,-0.629,-0.49,1014.5161408277347,0.8450686362657178
222394950,170137.425,231.0,-959.0,-238.0,0.419,-0.769,-0.629,1014.7344480207618,1.0782221477970113
222587250,170329.725,227.0,-959.0,-238.0,0.419,-0.769,-0.629,1013.8313469211731,1.0782221477970113
222769935,170512.41,229.0,-958.0,-240.0,0.28,-0.769,-0.699,1013.8071808780998,1.0762722703851475
222952620,170695.095,228.0,-958.0,-238.0,0.419,-0.699,-0.629,1013.1100631224625,1.0294673379957229
223135305,170877.78,228.0,-958.0,-240.0,0.49,-0.839,-0.56,1013.5817677918245,1.12143702453593
223317990,171060.465,233.0,-960.0,-238.0,0.349,-0.769,-0.49,1016.1363097537653,0.9763513711774056
223500675,171243.15,234.0,-957.0,-234.0,0.419,-0.91,-0.349,1012.6011060629946,1.0608779383133575
223683360,171425.835,227.0,-958.0,-232.0,0.49,-0.91,-0.769,1011.4924616624684,1.288239496367038
223866045,171608.52,225.0,-958.0,-238.0,0.56,-0.699,-0.629,1012.4391339730008,1.0944596840450542
224048730,171791.205,232.0,-958.0,-240.0,0.419,-0.839,-0.56,1014.4890339476322,1.0922829303802197
224231415,171973.89,230.0,-958.0,-240.0,0.419,-0.98,-0.769,1014.0335300176223,1.3142762266738297
224414100,172156.575,225.0,-960.0,-237.0,0.419,-0.769,-0.49,1014.0976284362368,1.0035048579852517
224596785,172339.26,234.0,-958.0,-238.0,0.349,-0.91,-0.56,1014.4772052638739,1.1240556036068678
224779470,172521.945,227.0,-959.0,-238.0,0.419,-0.91,-0.839,1013.8313469211731,1.3067448105885096
224962155,172704.63,223.0,-960.0,-238.0,0.349,-0.629,-0.56,1013.8900334848943,0.9116150503364894
225144840,172887.315,236.0,-957.0,-237.0,0.419,-0.699,-0.56,1013.7622995554727,0.9888184868821982
225327525,173070.0,226.0,-959.0,-238.0,0.56,-0.91,-0.629,1013.6079123605932,1.2398955601178674
225510210,173252.685,231.0,-959.0,-237.0,0.49,-0.839,-0.49,1014.5003696401495,1.0881732398841646
225692895,173435.37,227.0,-959.0,-236.0,0.419,-0.839,-0.699,1013.36370568518,1.1696508025902432
225875580,173618.055,233.0,-958.0,-238.0,0.629,-0.769,-0.699,1014.2470113340241,1.2147440059535177
226067880,173810.355,233.0,-958.0,-237.0,0.56,-0.769,-0.699,1014.0128204317734,1.1804922701991742
226250565,173993.04,227.0,-959.0,-237.0,0.49,-0.629,-0.49,1013.5970599799508,0.9358637721378043
226433250,174175.725,230.0,-957.0,-238.0,0.349,-0.629,-0.769,1012.6169068310088,1.052997150993297
226615935,174358.41,231.0,-958.0,-237.0,0.419,-0.699,-0.49,1013.5551292357017,0.9509269162243752
226798620,174541.095,224.0,-958.0,-238.0,0.349,-0.699,-0.349,1012.2173679600642,0.8556886115871823
226990920,174733.395,235.0,-956.0,-237.0,0.349,-0.699,-0.629,1012.5857988338569,1.0030169490093375
227173605,174916.08,234.0,-956.0,-238.0,0.419,-0.839,-0.91,1012.5887615414266,1.3067448105885096
227356290,175098.765,227.0,-959.0,-237.0,0.49,-0.769,-0.629,1013.5970599799508,1.107746360860644
227538975,175281.45,230.0,-958.0,-239.0,0.49,-0.839,-0.56,1013.7973170215041,1.12143702453593
227721660,175464.135,232.0,-958.0,-239.0,0.419,-0.769,-0.699,1014.2529270354609,1.1205012271300732
227913960,175656.435,228.0,-960.0,-238.0,0.419,-0.839,-0.56,1015.0014778314364,1.0922829303802197
228096645,175839.12,231.0,-958.0,-236.0,0.49,-0.839,-0.56,1013.3217652848477,1.12143702453593
228279330,176021.805,232.0,-958.0,-238.0,0.49,-0.769,-0.839,1014.0177513239105,1.2391053223999968
228462015,176204.49,226.0,-959.0,-239.0,0.49,-0.699,-0.49,1013.8431831402725,0.9842768919364103
228644700,176387.175,230.0,-959.0,-239.0,0.419,-0.769,-0.49,1014.7423318261636,1.0035048579852517
228827385,176569.86,233.0,-958.0,-237.0,0.49,-0.839,-0.699,1014.0128204317734,1.1969218855046473
229010070,176752.545,221.0,-962.0,-237.0,0.49,-0.699,-0.56,1015.1128016136926,1.020931437462869
229192755,176935.23,233.0,-958.0,-237.0,0.419,-0.699,-0.56,1014.0128204317734,0.9888184868821982
229375440,177117.915,232.0,-958.0,-237.0,0.56,-0.91,-0.91,1013.7835074610358,1.4034956359034396
229558125,177300.6,225.0,-959.0,-237.0,0.49,-0.699,-0.56,1013.1510252672106,1.020931437462869
229740810,177483.285,231.0,-959.0,-237.0,0.349,-0.699,-0.56,1014.5003696401495,0.9612502275682435
229923495,177665.97,231.0,-958.0,-238.0,0.419,-0.769,-0.699,1013.7894258671275,1.1205012271300732
230106180,177848.655,226.0,-959.0,-238.0,0.419,-0.769,-0.56,1013.6079123605932,1.039481601568782
230288865,178031.34,229.0,-958.0,-237.0,0.49,-0.769,-0.49,1013.1011795472356,1.03516230611436
230481165,178223.64,228.0,-957.0,-237.0,0.419,-0.839,-0.769,1011.9298394651677,1.2127831628118853
230663850,178406.325,224.0,-959.0,-238.0,0.419,-0.699,-0.49,1013.16385644179,0.9509269162243752
230856150,178598.625,229.0,-959.0,-237.0,0.49,-0.769,-0.419,1014.0468430994695,1.0035048579852517
231038835,178781.31,230.0,-958.0,-238.0,0.419,-0.769,-0.56,1013.5620355952565,1.039481601568782
231221520,178963.995,229.0,-958.0,-238.0,0.419,-0.769,-0.56,1013.3355811378578,1.039481601568782
231404205,179146.68,233.0,-958.0,-237.0,0.419,-0.839,-0.629,1014.0128204317734,1.1292134430655703
231586890,179329.365,229.0,-959.0,-237.0,0.56,-0.839,-0.769,1014.0468430994695,1.2684171238200783
231779190,179521.665,224.0,-960.0,-237.0,0.49,-0.699,-0.419,1013.876225187276,0.9509269162243752
231961875,179704.35,226.0,-958.0,-237.0,0.49,-0.769,-0.49,1012.4272813392574,1.03516230611436
232144560,179887.035,229.0,-958.0,-237.0,0.49,-0.839,-0.629,1013.1011795472356,1.1574376873076149
232327245,180069.72,229.0,-958.0,-236.0,0.49,-0.91,-0.419,1012.8677110067238,1.1152403328431053
232509930,180252.405,220.0,-960.0,-236.0,0.349,-0.769,-0.56,1012.7665081350192,1.0132926526922021
232692615,180435.09,231.0,-958.0,-237.0,0.419,-0.56,-0.56,1013.5551292357017,0.8959693075100286
232875300,180617.775,235.0,-957.0,-236.0,0.419,-0.769,-0.56,1013.296600211409,1.039481601568782
233057985,180800.46,229.0,-958.0,-236.0,0.419,-0.769,-0.629,1012.8677110067238,1.0782221477970113
233240670,180983.145,228.0,-958.0,-236.0,0.49,-0.769,-0.49,1012.642088795444,1.03516230611436
233423355,181165.83,227.0,-958.0,-237.0,0.49,-0.699,-0.49,1012.6509763980876,0.9842768919364103
233606040,181348.515,230.0,-960.0,-238.0,0.419,-0.839,-0.56,1015.4526084461057,1.0922829303802197
233788725,181531.2,230.0,-958.0,-236.0,0.49,-0.91,-0.56,1013.0942700459815,1.1754998936622667
233971410,181713.885,226.0,-958.0,-238.0,0.419,-0.839,-0.56,1012.6618389176123,1.0922829303802197
234154095,181896.57,233.0,-954.0,-237.0,0.56,-0.769,-0.56,1010.2346262131387,1.1038845048282906
234346395,182088.87,239.0,-955.0,-237.0,0.56,-0.769,-1.19,1012.5783920270075,1.523502871674353
234529080,182271.555,218.0,-962.0,-240.0,0.49,-0.769,-0.769,1015.1689514558648,1.192821025971625
234721380,182463.855,222.0,-960.0,-241.0,0.56,-0.629,-0.209,1014.3791204475771,0.8677107813090719
234904065,182646.54,236.0,-956.0,-241.0,0.49,-0.769,-0.699,1013.7618063430876,1.1489395110274518
235086750,182829.225,223.0,-958.0,-238.0,0.349,-0.839,-0.699,1011.9965414960666,1.1464392700880408
235269435,183011.91,227.0,-958.0,-237.0,0.49,-0.769,-0.419,1012.6509763980876,1.0035048579852517
235452120,183194.595,234.0,-960.0,-236.0,0.56,-0.91,-0.49,1015.8996013386362,1.1754998936622667
235634805,183377.28,226.0,-959.0,-238.0,0.49,-0.91,-0.629,1013.6079123605932,1.2098929704730084
235817490,183559.965,229.0,-958.0,-237.0,0.49,-0.769,-0.49,1013.1011795472356,1.03516230611436
236000175,183742.65,228.0,-959.0,-240.0,0.49,-0.699,-0.839,1014.5269833769825,1.1969218855046473
236182860,183925.335,223.0,-960.0,-241.0,0.419,-0.839,-0.419,1014.5984427348585,1.0271528610679133
236365545,184108.02,229.0,-958.0,-239.0,0.349,-0.91,-0.49,1013.5709151312502,1.0908716698127237
236548230,184290.705,233.0,-962.0,-235.0,0.49,-0.839,-0.91,1017.328855385514,1.3312103515222529
236740530,184483.005,227.0,-959.0,-237.0,0.49,-0.769,-0.629,1013.5970599799508,1.107746360860644
236923215,184665.69,229.0,-958.0,-239.0,0.349,-0.629,-0.699,1013.5709151312502,1.0030169490093375
237105900,184848.375,228.0,-958.0,-238.0,0.209,-0.699,-0.56,1013.1100631224625,0.919718435174592
237288585,185031.06,231.0,-959.0,-236.0,0.419,-0.629,-0.56,1014.2672231714874,0.940639144411926
237471270,185213.745,225.0,-959.0,-237.0,0.349,-0.769,-0.769,1013.1510252672106,1.1421571695699329
237663570,185406.045,228.0,-959.0,-239.0,0.419,-0.629,-0.49,1014.2908852986899,0.9007230428938742
237846255,185588.73,235.0,-957.0,-238.0,0.419,-0.839,-0.629,1013.7642724026133,1.1292134430655703
238028940,185771.415,226.0,-962.0,-238.0,0.349,-0.839,-0.56,1016.4467521715045,1.0673902753913396
238211625,185954.1,233.0,-957.0,-237.0,0.49,-0.91,-0.28,1013.0681122214834,1.0707940978544848
238394310,186136.785,229.0,-958.0,-237.0,0.56,-0.98,-0.98,1013.1011795472356,1.4947909552843837
238586610,186329.085,218.0,-965.0,-238.0,0.419,-0.56,-0.49,1017.5426280996782,0.8539677979877227
238769295,186511.77,241.0,-957.0,-237.0,0.349,-0.629,-0.349,1014.9379291365556,0.7995267350126573
238951980,186694.455,228.0,-958.0,-237.0,0.349,-0.839,-0.839,1012.8756093420357,1.236787370569412
239134665,186877.14,227.0,-959.0,-235.0,0.56,-0.769,-0.419,1013.1312846813092,1.039481601568782
239317350,187059.825,230.0,-959.0,-236.0,0.629,-0.839,-0.98,1014.0399400418112,1.4352567714524114
239500035,187242.51,220.0,-962.0,-240.0,0.419,-0.769,-0.28,1015.6003150846301,0.9194139437707044
239682720,187425.195,229.0,-958.0,-241.0,0.349,-0.769,-0.28,1014.0443777271289,0.8896977014694373
239865405,187607.88,228.0,-959.0,-237.0,0.28,-0.699,-0.56,1013.8214832996981,0.9384034313662755
240048090,187790.565,233.0,-959.0,-233.0,0.419,-0.91,-0.629,1014.0310646129141,1.1829209610113434
240230775,187973.25,222.0,-957.0,-238.0,0.419,-0.839,-0.56,1010.8298570976225,1.0922829303802197
240413460,188155.935,231.0,-958.0,-236.0,0.49,-0.839,-0.699,1013.3217652848477,1.1969218855046473
240605760,188348.235,225.0,-960.0,-238.0,0.49,-0.839,-0.769,1014.3317997578505,1.2391053223999968
240788445,188530.92,224.0,-960.0,-240.0,0.349,-0.769,-0.349,1014.5816871992122,0.9137630984013306
240971130,188713.605,232.0,-958.0,-238.0,0.209,-0.769,-0.419,1014.0177513239105,0.900334937675974
241153815,188896.29,233.0,-958.0,-234.0,0.419,-0.91,-0.699,1013.3158441473221,1.221581761487949
241336500,189078.975,236.0,-957.0,-234.0,0.49,-0.91,-0.769,1013.065150915774,1.288239496367038
241528800,189271.275,230.0,-958.0,-234.0,0.49,-0.839,-0.91,1012.6302385372461,1.3312103515222529
241711485,189453.96,222.0,-960.0,-239.0,0.629,-0.699,-0.49,1013.9058141661877,1.0603499422360525
241894170,189636.645,228.0,-957.0,-238.0,0.419,-0.699,-0.419,1012.1645123200082,0.9163640106420592
242076855,189819.33,229.0,-959.0,-238.0,0.349,-0.699,-0.699,1014.2810261461071,1.0483334393216692
242259540,190002.015,230.0,-959.0,-237.0,0.49,-0.699,-0.56,1014.2731387550397,1.020931437462869
242451840,190194.315,230.0,-959.0,-237.0,0.419,-0.629,-0.629,1014.2731387550397,0.9832817500594628
242634525,190377.0,234.0,-958.0,-236.0,0.419,-0.769,-0.629,1014.0098618849819,1.0782221477970113
242817210,190559.685,233.0,-958.0,-237.0,0.49,-0.699,-0.769,1014.0128204317734,1.1489395110274518
242999895,190742.37,226.0,-959.0,-237.0,0.419,-0.699,-0.629,1013.3735737624107,1.0294673379957229
243182580,190925.055,231.0,-959.0,-238.0,0.419,-0.769,-0.49,1014.7344480207618,1.0035048579852517
243374880,191117.355,225.0,-959.0,-238.0,0.349,-0.769,-0.49,1013.3854153282452,0.9763513711774056
243557565,191300.04,234.0,-957.0,-238.0,0.419,-0.769,-0.349,1013.5329299041052,0.9427210616083636
243740250,191482.725,223.0,-959.0,-237.0,0.419,-0.839,-1.049,1012.7087439140633,1.4070831531931578
243922935,191665.41,224.0,-961.0,-239.0,0.49,-0.699,-0.419,1015.2920762027053,0.9509269162243752
244105620,191848.095,232.0,-959.0,-241.0,0.419,-0.91,-0.629,1015.6702220701363,1.1829209610113434
244288305,192030.78,223.0,-961.0,-240.0,0.349,-0.91,-0.56,1015.3078350923921,1.1240556036068678
244470990,192213.465,232.0,-958.0,-238.0,0.349,-0.839,-0.629,1014.0177513239105,1.1051529305937706
244653675,192396.15,230.0,-959.0,-238.0,0.349,-0.839,-0.839,1014.5072695648859,1.236787370569412
244836360,192578.835,225.0,-960.0,-241.0,0.349,-0.699,-0.56,1015.0399006935638,0.9612502275682435
245019045,192761.52,227.0,-961.0,-237.0,0.49,-1.049,-0.49,1015.4895371199055,1.2572195512320035
245201730,192944.205,224.0,-957.0,-241.0,0.49,-0.98,-0.349,1011.9812251222845,1.149913475005837
245394030,193136.505,220.0,-961.0,-241.0,0.28,-0.769,-0.209,1014.8901418380218,0.8446549591401213
245576715,193319.19,222.0,-959.0,-238.0,0.28,-0.629,-0.28,1012.7235555668684,0.7432637486114873
245769015,193511.49,240.0,-956.0,-239.0,0.14,-0.91,-0.49,1014.2272920800347,1.0429765098025938
245951700,193694.175,226.0,-960.0,-234.0,0.28,-0.839,-0.91,1013.6232041542853,1.2690236404417374
246134385,193876.86,222.0,-959.0,-237.0,0.419,-0.629,-0.91,1012.4890122860593,1.1829209610113434
246317070,194059.545,232.0,-957.0,-240.0,0.349,-0.56,-0.49,1013.5447696081313,0.8218886785933969
246499755,194242.23,215.0,-959.0,-244.0,0.28,-0.699,-0.839,1012.6411012792242,1.1273517640914037
246682440,194424.915,216.0,-961.0,-240.0,0.209,-0.419,-0.07,1013.7933714519936,0.47343637376103664
246865125,194607.6,247.0,-955.0,-236.0,0.28,-0.91,-0.56,1014.2632794299516,1.104581368664165
247047810,194790.285,233.0,-957.0,-237.0,0.49,-1.049,-1.049,1013.0681122214834,1.5623386316672836
247230495,194972.97,227.0,-959.0,-234.0,0.49,-0.629,-0.28,1012.8997976108002,0.8450686362657178
247413180,195155.655,240.0,-955.0,-236.0,0.56,-0.769,-0.769,1012.5813547562487,1.2232424126067571
247595865,195338.34,224.0,-960.0,-238.0,0.629,-0.839,-0.769,1014.1104476337871,1.300354951542078
247788165,195530.64,222.0,-958.0,-240.0,0.49,-0.699,-0.56,1012.2489812294207,1.020931437462869
247970850,195713.325,229.0,-957.0,-238.0,0.49,-0.699,-0.629,1012.3902409644218,1.0603499422360525
248163150,195905.625,218.0,-961.0,-238.0,0.419,-0.699,-0.56,1013.749969173859,0.9888184868821982
248345835,196088.31,233.0,-958.0,-239.0,0.28,-0.629,-0.56,1014.4821338988677,0.8874914084091181
248528520,196270.995,232.0,-957.0,-237.0,0.349,-0.769,-0.769,1012.8385853629393,1.1421571695699329
248711205,196453.68,228.0,-959.0,-237.0,0.419,-0.769,-0.629,1013.8214832996981,1.0782221477970113
248893890,196636.365,223.0,-957.0,-240.0,0.419,-0.699,-0.49,1011.5226146755198,0.9509269162243752
249076575,196819.05,239.0,-956.0,-238.0,0.419,-0.699,-0.419,1013.7558877757505,0.9163640106420592
249259260,197001.735,231.0,-958.0,-237.0,0.49,-0.91,-1.049,1013.5551292357017,1.472617058165496
249441945,197184.42,225.0,-959.0,-237.0,0.49,-0.629,-0.14,1013.1510252672106,0.8095313459032948
249624630,197367.105,242.0,-953.0,-235.0,0.419,-0.91,-0.839,1010.9391673092897,1.3067448105885096
249807315,197549.79,210.0,-965.0,-239.0,0.629,-0.98,-0.839,1016.0934996347531,1.4352567714524114
249990000,197732.475,221.0,-961.0,-242.0,0.28,-0.699,0.209,1015.34526147513,0.7814614513845196
250172685,197915.16,238.0,-956.0,-239.0,0.349,-0.98,-0.91,1013.7558877757505,1.3821363897966077
250355370,198097.845,224.0,-961.0,-239.0,0.349,-0.839,-0.839,1015.2920762027053,1.236787370569412
250538055,198280.53,228.0,-959.0,-237.0,0.419,-0.699,-0.419,1013.8214832996981,0.9163640106420592
250720740,198463.215,230.0,-958.0,-238.0,0.49,-0.699,-0.839,1013.5620355952565,1.1969218855046473
250903425,198645.9,229.0,-960.0,-238.0,0.419,-0.769,-0.56,1015.2265756962827,1.039481601568782
251086110,198828.585,231.0,-958.0,-238.0,0.49,-0.839,-0.49,1013.7894258671275,1.0881732398841646
251268795,199011.27,224.0,-959.0,-236.0,0.49,-0.699,-0.56,1012.6959069730656,1.020931437462869
251451480,199193.955,228.0,-959.0,-238.0,0.49,-0.699,-0.49,1014.0557183902667,0.9842768919364103
251643780,199386.255,230.0,-958.0,-238.0,0.349,-0.769,-0.629,1013.5620355952565,1.052997150993297
251826465,199568.94,226.0,-959.0,-239.0,0.349,-0.769,-0.56,1013.8431831402725,1.0132926526922021
252009150,199751.625,223.0,-960.0,-238.0,0.419,-0.699,-0.699,1013.8900334848943,1.0736680120037105
252191835,199934.31,225.0,-959.0,-238.0,0.349,-0.699,-0.49,1013.3854153282452,0.9222266532691407
252374520,200116.995,232.0,-959.0,-240.0,0.419,-0.769,-0.769,1015.4334050049762,1.1654539887957827
252557205,200299.68,229.0,-959.0,-238.0,0.419,-0.769,-0.56,1014.2810261461071,1.039481601568782
252739890,200482.365,231.0,-957.0,-237.0,0.49,-0.769,-0.769,1012.6099940253405,1.192821025971625
252922575,200665.05,226.0,-960.0,-239.0,0.49,-0.699,-0.56,1014.7891406592801,1.020931437462869
253114875,200857.35,226.0,-960.0,-239.0,0.49,-0.699,-0.49,1014.7891406592801,0.9842768919364103
253297560,201040.035,229.0,-959.0,-238.0,0.419,-0.769,-0.56,1014.2810261461071,1.039481601568782
253480245,201222.72,232.0,-959.0,-239.0,0.419,-0.839,-0.769,1015.1975177274618,1.2127831628118853
253662930,201405.405,228.0,-959.0,-239.0,0.349,-0.839,-0.56,1014.2908852986899,1.0673902753913396
253845615,201588.09,233.0,-954.0,-235.0,0.56,-0.629,-0.699,1009.767299926077,1.0944596840450542
254028300,201770.775,228.0,-958.0,-237.0,0.28,-0.629,-0.419,1012.8756093420357,0.8059789079126078
254210985,201953.46,231.0,-959.0,-237.0,0.49,-0.769,-0.629,1014.5003696401495,1.107746360860644
254393670,202136.145,230.0,-959.0,-235.0,0.49,-0.91,-0.629,1013.8076740684103,1.2098929704730084
254576355,202318.83,227.0,-959.0,-237.0,0.49,-0.769,-0.769,1013.5970599799508,1.192821025971625
254759040,202501.515,229.0,-959.0,-238.0,0.419,-0.699,-0.49,1014.2810261461071,0.9509269162243752
254941725,202684.2,227.0,-959.0,-238.0,0.419,-0.769,-0.56,1013.8313469211731,1.039481601568782
255124410,202866.885,229.0,-958.0,-238.0,0.419,-0.839,-0.56,1013.3355811378578,1.0922829303802197
255307095,203049.57,226.0,-959.0,-237.0,0.49,-0.839,-0.629,1013.3735737624107,1.1574376873076149
255489780,203232.255,227.0,-960.0,-238.0,0.49,-0.769,-0.56,1014.7773154736955,1.0700752310001387
255672465,203414.94,232.0,-958.0,-238.0,0.419,-0.769,-0.419,1014.0177513239105,0.9708156364624542
255855150,203597.625,231.0,-960.0,-236.0,0.419,-0.769,-0.699,1015.2127855774867,1.1205012271300732
256037835,203780.31,229.0,-959.0,-237.0,0.56,-0.699,-0.629,1014.0468430994695,1.0944596840450542
256220520,203962.995,232.0,-959.0,-238.0,0.49,-0.839,-0.49,1014.9625608858684,1.0881732398841646
256403205,204145.68,232.0,-957.0,-239.0,0.419,-0.699,-0.629,1013.3084426767597,1.0294673379957229
256595505,204337.98,229.0,-957.0,-238.0,0.49,-0.98,-0.49,1012.3902409644218,1.2002499739637573
256778190,204520.665,218.0,-960.0,-239.0,0.419,-0.839,-0.349,1013.0375116450525,1.000641294370765
256960875,204703.35,239.0,-957.0,-238.0,0.419,-0.769,-0.419,1014.6989701384347,0.9708156364624542
257143560,204886.035,223.0,-959.0,-236.0,0.419,-0.98,-0.56,1012.4751848810913,1.2039771592517858
257326245,205068.72,224.0,-959.0,-235.0,0.349,-0.769,-0.349,1012.4633326693861,0.9137630984013306
257508930,205251.405,236.0,-955.0,-235.0,0.49,-0.769,-0.839,1011.4079295714464,1.2391053223999968
257691615,205434.09,225.0,-960.0,-240.0,0.49,-0.839,-0.839,1014.8029365349709,1.283721932507192
257874300,205616.775,227.0,-959.0,-239.0,0.349,-0.839,-0.28,1014.0665658624191,0.9508533009881177
258066600,205809.075,230.0,-956.0,-238.0,0.349,-0.699,-0.56,1011.6718835669992,0.9612502275682435
258249285,205991.76,218.0,-960.0,-236.0,0.349,-0.769,-0.91,1012.3339369990517,1.2414757347608532
258431970,206174.445,224.0,-960.0,-238.0,0.419,-0.629,-0.209,1014.1104476337871,0.784144757044259
258614655,206357.13,236.0,-957.0,-237.0,0.419,-0.91,-0.699,1013.7622995554727,1.221581761487949
258797340,206539.815,226.0,-961.0,-239.0,0.419,-0.839,-0.839,1015.7352017135174,1.2583334216335509
258980025,206722.5,226.0,-959.0,-241.0,0.419,-0.699,-0.209,1014.3165186469163,0.8413340596932944
259162710,206905.185,227.0,-960.0,-236.0,0.419,-0.839,-0.349,1014.3101103705908,1.000641294370765
259345395,207087.87,239.0,-958.0,-236.0,0.419,-0.839,-0.699,1015.1753543107712,1.1696508025902432
259528080,207270.555,230.0,-956.0,-236.0,0.629,-0.91,-1.049,1011.2032436656837,1.5245136929526084
259710765,207453.24,215.0,-962.0,-239.0,0.629,-0.56,-0.28,1014.2928571177064,0.8874914084091181
259893450,207635.925,220.0,-960.0,-237.0,0.49,-0.56,-0.14,1013.0,0.7571657678474377
260076135,207818.61,239.0,-956.0,-238.0,0.209,-0.839,-0.629,1013.7558877757505,1.0692254205732297
260258820,208001.295,230.0,-958.0,-234.0,0.49,-0.98,-1.049,1012.6302385372461,1.516872110627656
260441505,208183.98,216.0,-961.0,-236.0,0.56,-0.699,-0.49,1012.8538887717222,1.020931437462869
260624190,208366.665,233.0,-958.0,-240.0,0.349,-0.769,-0.349,1014.7181874786713,0.9137630984013306
260806875,208549.35,230.0,-958.0,-240.0,0.349,-0.91,-0.769,1014.0335300176223,1.2414757347608532
260999175,208741.65,244.0,-950.0,-244.0,0.49,-0.98,-1.259,1010.728450178385,1.6690059916009887
261181860,208924.335,262.0,-952.0,-234.0,0.91,-1.75,-1.399,1014.7433172975321,2.4182226944597143
261364545,209107.02,203.0,-965.0,-245.0,0.769,-0.98,-0.349,1016.0998966637089,1.2936622434004943
261547230,209289.705,235.0,-957.0,-246.0,0.419,-0.349,0.209,1015.6721912113179,0.5839888697569501
261729915,209472.39,245.0,-954.0,-241.0,0.28,-0.98,-0.98,1014.0128204317734,1.4139306913706908
261912600,209655.075,223.0,-962.0,-233.0,0.56,-1.12,-0.629,1014.6240683129885,1.4012997538000214
262095285,209837.76,221.0,-959.0,-237.0,0.56,-0.769,0.0,1012.2702208402656,0.9512943813562657
262277970,210020.445,232.0,-958.0,-240.0,0.629,-0.699,-0.769,1014.4890339476322,1.2147440059535177
262460655,210203.13,227.0,-958.0,-241.0,0.349,-0.769,-0.699,1013.5945935136,1.0962495153932794
262643340,210385.815,233.0,-956.0,-236.0,0.28,-0.839,-0.49,1011.8898161361245,1.0111483570673494
262826025,210568.5,225.0,-959.0,-236.0,0.56,-0.839,-0.839,1012.9175682156964,1.3120373470294204
263018325,210760.8,220.0,-962.0,-239.0,0.56,-0.769,-0.349,1015.3644665833052,1.0132926526922024
263201010,210943.485,237.0,-957.0,-238.0,0.419,-0.769,-0.349,1014.2297570077502,0.9427210616083636
263393310,211135.785,238.0,-955.0,-238.0,0.49,-0.98,-0.769,1012.5774044486673,1.3386041237049884
263575995,211318.47,220.0,-961.0,-237.0,0.56,-0.98,-0.91,1013.9477304082296,1.4498620624045586
263758680,211501.155,220.0,-960.0,-240.0,0.49,-0.699,-0.349,1013.7060717979349,0.9222266532691407
263941365,211683.84,234.0,-958.0,-239.0,0.419,-0.769,-0.629,1014.7122744896703,1.0782221477970113
264124050,211866.525,227.0,-959.0,-240.0,0.49,-0.769,-0.629,1014.3027161552906,1.107746360860644
264306735,212049.21,227.0,-957.0,-239.0,0.49,-0.699,-0.419,1012.1753800601949,0.9509269162243752
264489420,212231.895,233.0,-957.0,-238.0,0.49,-0.699,-0.56,1013.3025214613847,1.020931437462869
264672105,212414.58,232.0,-956.0,-238.0,0.419,-0.699,-0.49,1012.1284503461011,0.9509269162243752
264864405,212606.88,241.0,-955.0,-235.0,0.419,-0.839,-0.839,1012.5862926190538,1.2583334216335509
265047090,212789.565,220.0,-961.0,-237.0,0.629,-1.049,-1.049,1013.9477304082296,1.6113481932841207
265229775,212972.25,221.0,-961.0,-242.0,0.49,-0.769,0.0,1015.34526147513,0.9118448332912787
265412460,213154.935,236.0,-957.0,-240.0,0.419,-0.839,-0.56,1014.4678407914171,1.0922829303802197
265595145,213337.62,232.0,-959.0,-238.0,0.419,-0.98,-0.49,1014.9625608858684,1.1730562646352476
265777830,213520.305,231.0,-957.0,-235.0,0.49,-1.049,-0.419,1012.1437644919816,1.2312846949426441
265960515,213702.99,222.0,-960.0,-236.0,0.49,-0.839,-0.699,1013.2028424752864,1.1969218855046473
266143200,213885.675,225.0,-960.0,-238.0,0.419,-0.629,-0.28,1014.3317997578505,0.8059789079126078
266325885,214068.36,240.0,-955.0,-238.0,0.419,-0.839,-0.56,1013.0493571391278,1.0922829303802197
266508570,214251.045,232.0,-955.0,-241.0,0.839,-1.33,-1.19,1011.8942632508596,1.972034736002386
266691255,214433.73,193.0,-966.0,-243.0,0.56,-0.98,-0.419,1014.6201259584791,1.2039771592517858
266873940,214616.415,225.0,-960.0,-244.0,0.28,-0.49,0.56,1015.7563684269963,0.7950471684120384
267056625,214799.1,244.0,-955.0,-242.0,0.209,-1.12,-0.769,1014.9507377208018,1.3745697508675216
267239310,214981.785,219.0,-960.0,-234.0,0.28,-0.91,-0.769,1012.0854706989919,1.2238713167649613
267421995,215164.47,231.0,-958.0,-234.0,0.49,-0.629,-0.419,1012.8578380009704,0.9007230428938742
267604680,215347.155,233.0,-955.0,-238.0,0.629,-0.629,-0.91,1011.4138618785091,1.2725494096497787
267796980,215539.455,224.0,-959.0,-239.0,0.49,-0.839,-0.49,1013.3992303135028,1.0881732398841646
267979665,215722.14,230.0,-958.0,-241.0,0.419,-1.049,-1.12,1014.2706739327525,1.5907111617135274
268162350,215904.825,212.0,-963.0,-242.0,0.56,-0.769,-0.209,1015.3211314653113,0.9739825460448458
268345035,216087.51,234.0,-956.0,-241.0,0.419,-0.769,-0.07,1013.2980805271468,0.878534006171645
268527720,216270.195,227.0,-959.0,-240.0,0.28,-0.98,-0.769,1014.3027161552906,1.276777584389701
268710405,216452.88,221.0,-960.0,-237.0,0.349,-0.699,-0.349,1013.2176469051454,0.8556886115871823
268893090,216635.565,230.0,-959.0,-239.0,0.419,-0.699,-0.56,1014.7423318261636,0.9888184868821982
269075775,216818.25,235.0,-957.0,-240.0,0.419,-0.91,-0.769,1014.2356728098258,1.262941803884882
269258460,217000.935,231.0,-960.0,-240.0,0.419,-0.769,-0.56,1016.1500873394639,1.039481601568782
269441145,217183.62,226.0,-959.0,-237.0,0.49,-0.839,-0.49,1013.3735737624107,1.0881732398841646
269623830,217366.305,233.0,-958.0,-239.0,0.49,-0.839,-0.769,1014.4821338988677,1.2391053223999968
269816130,217558.605,233.0,-958.0,-241.0,0.419,-0.769,-0.91,1014.9551714238418,1.262941803884882
269998815,217741.29,227.0,-961.0,-238.0,0.419,-0.699,-0.49,1015.7233875421005,0.9509269162243752
270191115,217933.59,221.0,-960.0,-241.0,0.28,-0.56,0.0,1014.1607367671064,0.6260990336999411
270373800,218116.275,244.0,-954.0,-236.0,0.49,-0.769,-0.839,1012.5946869305606,1.2391053223999968
270556485,218298.96,219.0,-961.0,-236.0,0.56,-0.98,-1.33,1013.4979033032087,1.7443910112127958
270739170,218481.645,221.0,-961.0,-242.0,0.349,-0.56,-0.14,1015.34526147513,0.6745376194105115
270921855,218664.33,241.0,-953.0,-242.0,0.349,-0.98,-0.56,1012.350729737476,1.1814402227789607
271104540,218847.015,214.0,-959.0,-244.0,0.349,-0.91,-0.49,1012.4292567878508,1.0908716698127237
271287225,219029.7,232.0,-952.0,-235.0,0.419,-0.98,0.209,1007.647259709468,1.0861132537631608
271469910,219212.385,240.0,-953.0,-235.0,0.839,-1.399,-1.259,1010.462270448531,2.0606316992611755
271652595,219395.07,211.0,-961.0,-238.0,0.699,-0.629,-0.07,1012.2677511409715,0.9429432644650472
271835280,219577.755,245.0,-955.0,-238.0,0.629,-0.91,-0.56,1014.2455324032736,1.2398955601178674
272017965,219760.44,232.0,-958.0,-241.0,0.769,-0.91,-0.699,1014.7260714104078,1.3813261743701233
272200650,219943.125,229.0,-956.0,-244.0,0.56,-0.769,-0.769,1012.8736347639818,1.2232424126067571
272383335,220125.81,211.0,-962.0,-241.0,0.28,-0.419,-0.209,1013.9260328051548,0.5455657613890372
272566020,220308.495,250.0,-952.0,-239.0,0.56,-1.12,-0.56,1012.8795584865952,1.3717142559585798
272748705,220491.18,219.0,-964.0,-238.0,0.56,-0.98,-1.049,1016.8092249778225,1.5409091472244558
272931390,220673.865,227.0,-960.0,-240.0,0.349,-0.629,-0.28,1015.248245504517,0.7719080256092691
273114075,220856.55,241.0,-959.0,-241.0,0.349,-0.98,-0.419,1017.7637250364153,1.1214998885421255
273296760,221039.235,225.0,-961.0,-240.0,0.349,-0.98,-0.629,1015.7489847398323,1.2156652499763247
273479445,221221.92,232.0,-957.0,-237.0,0.419,-1.12,-0.49,1012.8385853629393,1.2923083997250813
273671745,221414.22,234.0,-957.0,-236.0,0.56,-0.699,-0.49,1013.065150915774,1.020931437462869
273854430,221596.905,239.0,-957.0,-236.0,0.699,-0.699,-0.769,1014.2317289456093,1.2524228519154383
274037115,221779.59,227.0,-958.0,-235.0,0.56,-0.839,-0.699,1012.1847657419074,1.2272416225014535
274219800,221962.275,221.0,-962.0,-238.0,0.419,-0.629,-0.28,1015.3467388040402,0.8059789079126078
274402485,222144.96,238.0,-956.0,-238.0,0.49,-0.769,-0.349,1013.5205967320053,0.9763513711774056
274585170,222327.645,233.0,-959.0,-232.0,0.349,-0.56,-0.629,1013.8017557688486,0.9116150503364894
274767855,222510.33,241.0,-955.0,-232.0,0.56,-0.629,-0.98,1011.8942632508596,1.2921458895960625
274950540,222693.015,234.0,-961.0,-236.0,0.769,-0.769,-1.33,1016.8446292330013,1.7180285212999231
275133225,222875.7,217.0,-962.0,-243.0,0.49,-0.49,-0.349,1015.6682529251369,0.775887234074643
275315910,223058.385,235.0,-957.0,-243.0,0.349,-0.769,-0.629,1014.9497524508295,1.052997150993297
275498595,223241.07,219.0,-962.0,-241.0,0.209,-0.839,-0.699,1015.620992299785,1.1118466620896965
275690895,223433.37,216.0,-963.0,-237.0,0.209,-0.14,-0.07,1014.9847289491601,0.26111491722994307
275873580,223616.055,247.0,-955.0,-238.0,0.209,-0.49,-0.49,1014.7305060950912,0.7237962420460609
276065880,223808.355,233.0,-955.0,-234.0,0.699,-0.839,-1.61,1010.4800839205095,1.9454104965276608
276248565,223991.04,190.0,-969.0,-241.0,0.49,-0.28,-1.259,1016.4359301008599,1.3797032289590394
276431250,224173.725,236.0,-959.0,-244.0,0.349,-0.349,-0.07,1017.3067384029264,0.4984997492476801
276613935,224356.41,230.0,-958.0,-245.0,0.419,-0.91,-0.839,1015.2285456979625,1.3067448105885096
276796620,224539.095,227.0,-959.0,-240.0,0.14,-0.629,-0.49,1014.3027161552906,0.8095313459032948
276979305,224721.78,240.0,-955.0,-235.0,0.419,-0.56,-1.259,1012.3487541356486,1.440222899415226
277161990,224904.465,228.0,-959.0,-241.0,0.56,-0.769,-0.629,1014.7640119751981,1.1404393890075877
277344675,225087.15,228.0,-959.0,-242.0,0.49,-0.699,-0.28,1015.0019704414372,0.8983880008103403
277527360,225269.835,232.0,-958.0,-239.0,0.349,-0.91,-0.49,1014.2529270354609,1.0908716698127237
277710045,225452.52,231.0,-959.0,-236.0,0.49,-0.699,-0.629,1014.2672231714874,1.0603499422360525
277892730,225635.205,228.0,-958.0,-236.0,0.56,-0.839,-0.56,1012.642088795444,1.1537421722378012
278085030,225827.505,231.0,-957.0,-236.0,0.49,-0.839,-0.699,1012.3764122103992,1.1969218855046473
278267715,226010.19,220.0,-960.0,-240.0,0.419,-0.839,-0.419,1013.7060717979349,1.0271528610679133
278450400,226192.875,225.0,-959.0,-239.0,0.419,-0.769,-0.28,1013.6207377515517,0.9194139437707044
278633085,226375.56,237.0,-957.0,-239.0,0.28,-0.91,-0.839,1014.4648835716296,1.2690236404417374
278815770,226558.245,194.0,-970.0,-228.0,0.629,-1.47,1.47,1015.1453097955977,2.1719670807818425
279008070,226750.545,242.0,-953.0,-234.0,0.14,-0.349,0.419,1010.7071781678411,0.562993783269407
279190755,226933.23,241.0,-954.0,-231.0,0.349,-1.399,-1.61,1010.7215244566626,2.161273235849646
279373440,227115.915,218.0,-960.0,-230.0,0.629,-0.699,-0.769,1010.9520265571458,1.2147440059535177
279556125,227298.6,227.0,-957.0,-235.0,0.56,-0.699,-0.49,1011.2383497474767,1.020931437462869
279738810,227481.285,227.0,-959.0,-242.0,0.56,-0.699,-0.91,1014.7778081925127,1.2768324087365577
279931110,227673.585,224.0,-961.0,-245.0,0.419,-0.769,-0.349,1016.7212007231874,0.9427210616083636
280113795,227856.27,234.0,-957.0,-238.0,0.28,-0.98,-0.629,1013.5329299041052,1.197681510252204
280296480,228038.955,227.0,-958.0,-238.0,0.56,-0.839,-0.91,1012.8854821745645,1.3585363447475374
280479165,228221.64,230.0,-960.0,-238.0,0.49,-0.629,-0.349,1015.4526084461057,0.8703688873115812
280661850,228404.325,234.0,-959.0,-237.0,0.419,-0.699,-0.49,1015.1876673797806,0.9509269162243752
280844535,228587.01,234.0,-958.0,-237.0,0.629,-0.98,-0.98,1014.2430675138972,1.521985873784642
